"Time (s)","Acceleration x (m/s^2)","Acceleration y (m/s^2)","Acceleration z (m/s^2)","Absolute acceleration (m/s^2)"
0.000000000E0,-7.585296631E-1,5.335998535E-1,8.597412109E0,8.647288074E0
2.319336000E-3,-8.111724854E-1,5.527496338E-1,9.073577881E0,9.126518970E0
4.669190000E-3,-8.518524170E-1,5.814514160E-1,9.257827759E0,9.315101347E0
6.988526000E-3,-8.877410889E-1,5.814514160E-1,9.308074951E0,9.368373887E0
9.338379000E-3,-9.044799805E-1,6.006011963E-1,9.284149170E0,9.347418448E0
1.168823300E-2,-9.164581299E-1,6.173553467E-1,9.250656128E0,9.316418943E0
1.400756900E-2,-9.188385010E-1,6.006011963E-1,9.226730347E0,9.291799550E0
1.635742200E-2,-8.901367188E-1,6.340942383E-1,9.174087524E0,9.238955611E0
1.867675800E-2,-8.685913086E-1,6.149597168E-1,9.138183594E0,9.199947049E0
2.102661200E-2,-8.614196777E-1,6.293182373E-1,9.109481812E0,9.171736159E0
2.337646500E-2,-8.255310059E-1,6.436767578E-1,9.080764771E0,9.140903130E0
2.569580100E-2,-8.039855957E-1,6.604156494E-1,9.097518921E0,9.156822166E0
2.804565400E-2,-7.752685547E-1,6.556396484E-1,9.126220703E0,9.182527376E0
3.036499000E-2,-7.489471436E-1,6.652069092E-1,9.166900635E0,9.221468934E0
3.271484400E-2,-7.226257324E-1,6.580200195E-1,9.231506348E0,9.283096883E0
3.506469700E-2,-6.843414307E-1,6.460571289E-1,9.267395020E0,9.315058961E0
3.738403300E-2,-6.293182373E-1,6.436767578E-1,9.322433472E0,9.365795591E0
3.973388700E-2,-5.934143066E-1,6.221313477E-1,9.334396362E0,9.373907584E0
4.205322300E-2,-5.670928955E-1,6.077728271E-1,9.332015991E0,9.368964971E0
4.440307600E-2,-5.431671143E-1,5.934143066E-1,9.327224731E0,9.361853035E0
4.675293000E-2,-5.096740723E-1,5.670928955E-1,9.348754883E0,9.379796366E0
4.907226600E-2,-4.618072510E-1,5.431671143E-1,9.365509033E0,9.392606449E0
5.142211900E-2,-4.402770996E-1,5.192413330E-1,9.401397705E0,9.426013701E0
5.374145500E-2,-4.019927979E-1,4.977111816E-1,9.444473267E0,9.466117996E0
5.609130900E-2,-3.493499756E-1,4.689941406E-1,9.442077637E0,9.460170771E0
5.844116200E-2,-3.134613037E-1,4.761657715E-1,9.482757568E0,9.499878048E0
6.076049800E-2,-3.062744141E-1,4.642028809E-1,9.523437500E0,9.539661951E0
6.311035200E-2,-3.086700439E-1,4.642028809E-1,9.554534912E0,9.570783609E0
6.542968800E-2,-3.206329346E-1,4.522399902E-1,9.580856323E0,9.596881492E0
6.777954100E-2,-3.038940430E-1,4.402770996E-1,9.573684692E0,9.588620031E0
7.012939500E-2,-2.847442627E-1,4.402770996E-1,9.597610474E0,9.611922286E0
7.244873100E-2,-2.512512207E-1,4.331054688E-1,9.604797363E0,9.617839670E0
7.479858400E-2,-1.962127686E-1,4.259185791E-1,9.588043213E0,9.599504088E0
7.711792000E-2,-1.411743164E-1,4.235229492E-1,9.590438843E0,9.600823875E0
7.946777400E-2,-7.177734375E-2,4.091796875E-1,9.588043213E0,9.597038744E0
8.181762700E-2,-7.171630859E-3,4.115600586E-1,9.578475952E0,9.587316344E0
8.413696300E-2,3.588867188E-2,4.115600586E-1,9.573684692E0,9.582594026E0
8.648681700E-2,4.785156250E-2,4.283142090E-1,9.561721802E0,9.571429708E0
8.880615300E-2,6.939697266E-2,4.139556885E-1,9.568893433E0,9.578094632E0
9.115600600E-2,1.052856445E-1,3.924255371E-1,9.537796021E0,9.546446239E0
9.350586000E-2,1.196441650E-1,3.924255371E-1,9.533004761E0,9.541828561E0
9.582519500E-2,1.268157959E-1,3.732757568E-1,9.573684692E0,9.581798142E0
9.817504900E-2,1.387786865E-1,3.756713867E-1,9.621536255E0,9.629867518E0
1.004943850E-1,1.268157959E-1,3.732757568E-1,9.635894775E0,9.643955887E0
1.028442380E-1,1.651000977E-1,3.732757568E-1,9.657424927E0,9.666046195E0
1.051940920E-1,1.770629883E-1,3.637084961E-1,9.674179077E0,9.682632699E0
1.075134280E-1,1.962127686E-1,3.613128662E-1,9.683746338E0,9.692470767E0
1.098632810E-1,2.273254395E-1,3.517456055E-1,9.695724487E0,9.704765590E0
1.121826170E-1,2.464599609E-1,3.421783447E-1,9.686141968E0,9.695317156E0
1.145324710E-1,2.751770020E-1,3.325958252E-1,9.683746338E0,9.693362961E0
1.168823240E-1,3.038940430E-1,3.254241943E-1,9.695724487E0,9.705942810E0
1.192016600E-1,3.230285645E-1,3.278198242E-1,9.681365967E0,9.692299019E0
1.215515140E-1,3.613128662E-1,3.206329346E-1,9.700500488E0,9.712520898E0
1.238708500E-1,3.661041260E-1,3.325958252E-1,9.693328857E0,9.705940271E0
1.262207030E-1,3.756713867E-1,3.230285645E-1,9.707687378E0,9.720322560E0
1.285705570E-1,3.661041260E-1,3.134613037E-1,9.719650269E0,9.731592447E0
1.308898930E-1,3.565368652E-1,3.062744141E-1,9.734008789E0,9.745350156E0
1.332397460E-1,3.708801270E-1,2.847442627E-1,9.753143311E0,9.764345129E0
1.355896000E-1,3.876342773E-1,2.751770020E-1,9.753143311E0,9.764721560E0
1.379089360E-1,3.900299072E-1,2.775726318E-1,9.753143311E0,9.764884758E0
1.402587890E-1,4.211425781E-1,2.799530029E-1,9.753143311E0,9.766244887E0
1.425781250E-1,4.307098389E-1,2.871398926E-1,9.748352051E0,9.762086252E0
1.449279790E-1,4.498443604E-1,3.086700439E-1,9.714859009E0,9.730165605E0
1.472778320E-1,4.665985107E-1,3.134613037E-1,9.669403076E0,9.685728058E0
1.495971680E-1,4.761657715E-1,3.302154541E-1,9.631118774E0,9.648534859E0
1.519470220E-1,4.713897705E-1,3.134613037E-1,9.611968994E0,9.628624733E0
1.542663580E-1,4.498443604E-1,3.254241943E-1,9.609573364E0,9.625599259E0
1.566162110E-1,4.474639893E-1,3.230285645E-1,9.592819214E0,9.608681072E0
1.589660650E-1,4.235229492E-1,3.349914551E-1,9.609573364E0,9.624733306E0
1.612854010E-1,3.948211670E-1,3.589172363E-1,9.611968994E0,9.626767541E0
1.636352540E-1,3.637084961E-1,3.708801270E-1,9.647857666E0,9.661831787E0
1.659545900E-1,3.278198242E-1,3.708801270E-1,9.664611816E0,9.677279549E0
1.683044440E-1,3.182525635E-1,3.900299072E-1,9.690933228E0,9.703998910E0
1.706542970E-1,3.254241943E-1,4.115600586E-1,9.719650269E0,9.733801104E0
1.729736330E-1,3.302154541E-1,4.019927979E-1,9.734008789E0,9.747900675E0
1.753234870E-1,3.134613037E-1,4.091796875E-1,9.741180420E0,9.754808147E0
1.776733400E-1,2.799530029E-1,4.283142090E-1,9.750747681E0,9.764164433E0
1.799926760E-1,2.584228516E-1,4.498443604E-1,9.736389160E0,9.750200829E0
1.823425290E-1,2.560272217E-1,4.833526611E-1,9.686141968E0,9.701573375E0
1.846618650E-1,2.656097412E-1,4.833526611E-1,9.640686035E0,9.656448910E0
1.870117190E-1,2.560272217E-1,5.001068115E-1,9.585647583E0,9.602098539E0
1.893615720E-1,2.321014404E-1,5.264282227E-1,9.540191650E0,9.557523449E0
1.916809080E-1,2.225341797E-1,5.383911133E-1,9.506683350E0,9.524516511E0
1.940307620E-1,2.225341797E-1,5.551300049E-1,9.473190308E0,9.492050642E0
1.963500980E-1,2.249298096E-1,5.599212646E-1,9.408584595E0,9.427914367E0
1.986999510E-1,2.297058105E-1,5.527496338E-1,9.382263184E0,9.401338169E0
2.010498050E-1,2.416687012E-1,5.718841553E-1,9.310470581E0,9.331147716E0
2.033691410E-1,2.416687012E-1,5.838470459E-1,9.250656128E0,9.272212246E0
2.057189940E-1,2.464599609E-1,5.814514160E-1,9.205184937E0,9.226822746E0
2.080383300E-1,2.321014404E-1,5.838470459E-1,9.159729004E0,9.181251760E0
2.103881840E-1,2.297058105E-1,5.838470459E-1,9.114257812E0,9.135827144E0
2.127380370E-1,2.344970703E-1,5.670928955E-1,9.056838989E0,9.077605175E0
2.150573730E-1,2.177429199E-1,5.814514160E-1,9.018554688E0,9.039901901E0
2.174072270E-1,2.081756592E-1,5.886383057E-1,8.982650757E0,9.004323782E0
2.197265630E-1,1.794586182E-1,6.029968262E-1,8.944366455E0,8.966465405E0
2.220764160E-1,1.818542480E-1,6.221313477E-1,8.913269043E0,8.936804989E0
2.244262700E-1,1.698913574E-1,6.101684570E-1,8.898910522E0,8.921422370E0
2.267456060E-1,1.531372070E-1,6.029968262E-1,8.874984741E0,8.896764037E0
2.290954590E-1,1.076812744E-1,5.838470459E-1,8.879760742E0,8.899585578E0
2.314453130E-1,7.177734375E-2,5.862426758E-1,8.882156372E0,8.901771412E0
2.337646490E-1,4.785156250E-2,5.742797852E-1,8.922836304E0,8.941425767E0
2.361145020E-1,4.785156250E-2,5.790557861E-1,8.961120605E0,8.979937521E0
2.384338380E-1,3.349304199E-2,5.647125244E-1,9.001800537E0,9.019558466E0
2.407836920E-1,1.914978027E-2,5.694885254E-1,9.030517578E0,9.048476757E0
2.431335450E-1,-4.791259766E-3,5.838470459E-1,9.095123291E0,9.113844853E0
2.454528810E-1,-5.024719238E-2,5.814514160E-1,9.176467896E0,9.195008079E0
2.478027350E-1,-8.613586426E-2,5.982055664E-1,9.257827759E0,9.277534376E0
2.501220700E-1,-1.076812744E-1,5.862426758E-1,9.303298950E0,9.322373469E0
2.524719240E-1,-1.411743164E-1,5.934143066E-1,9.375076294E0,9.394898948E0
2.548217780E-1,-1.842498779E-1,5.958099365E-1,9.456436157E0,9.476978542E0
2.571411130E-1,5.407714844E-1,1.071990967E0,9.255432129E0,9.332985713E0
2.594909670E-1,5.910339355E-1,1.112655640E0,9.288940430E0,9.373992639E0
2.618103030E-1,3.038940430E-1,9.930267334E-1,9.458831787E0,9.515668787E0
2.641906740E-1,3.349304199E-2,8.470611572E-1,9.619140625E0,9.656422772E0
2.665405280E-1,-1.603240967E-1,6.891326904E-1,9.678970337E0,9.704796467E0
2.688598630E-1,-2.177429199E-1,5.240325928E-1,9.614364624E0,9.631096992E0
2.712097170E-1,-2.895355225E-1,4.115600586E-1,9.559326172E0,9.572561275E0
2.735290530E-1,-3.684997559E-1,3.230285645E-1,9.592819214E0,9.605327688E0
2.758789060E-1,-5.503540039E-1,3.182525635E-1,9.645462036E0,9.666390853E0
2.782287600E-1,-2.639282227E0,9.331970215E-1,1.033459473E1,1.070703113E1
2.805480960E-1,-3.692123413E0,1.055236816E0,1.083470154E1,1.149504491E1
2.828979490E-1,-1.490722656E0,1.196441650E-1,1.049491882E1,1.060093816E1
2.852172850E-1,2.225341797E-1,-3.278198242E-1,1.004267883E1,1.005049180E1
2.875671390E-1,5.216369629E-1,-6.700134277E-2,9.454040527E0,9.468657592E0
2.899169920E-1,1.842498779E-1,5.120697021E-1,8.944366455E0,8.960907023E0
2.922363280E-1,5.024719238E-2,8.111724854E-1,8.975479126E0,9.012200127E0
2.945861820E-1,-2.153015137E-2,6.963043213E-1,9.298507690E0,9.324566935E0
2.969055180E-1,-1.004943848E-1,4.594268799E-1,9.693328857E0,9.704730626E0
2.992553710E-1,-9.332275391E-2,2.297058105E-1,9.774673462E0,9.777817506E0
3.016662600E-1,-2.177429199E-1,1.459655762E-1,9.784255981E0,9.787767010E0
3.039245610E-1,-4.139556885E-1,1.363983154E-1,9.760330200E0,9.770056777E0
3.062744140E-1,-5.264282227E-1,1.196441650E-1,9.800994873E0,9.815851563E0
3.085937500E-1,-5.623168945E-1,7.177734375E-2,9.753143311E0,9.769603713E0
3.109436040E-1,-4.809570312E-1,4.067993164E-2,9.621536255E0,9.633635577E0
3.132934570E-1,-4.307098389E-1,-4.067993164E-2,9.418151855E0,9.428083060E0
3.156127930E-1,-5.001068115E-1,-2.871704102E-2,9.169296265E0,9.182969317E0
3.179626470E-1,-7.369842529E-1,4.785156250E-2,8.901306152E0,8.931891557E0
3.202819830E-1,-1.031311035E0,1.411743164E-1,8.685943604E0,8.748094017E0
3.226318360E-1,-1.347152710E0,3.637084961E-1,8.642868042E0,8.754785679E0
3.249816900E-1,-1.596008301E0,5.862426758E-1,8.798416138E0,8.961196879E0
3.273010260E-1,-1.684539795E0,8.207397461E-1,9.111862183E0,9.302543764E0
3.296508790E-1,-1.548156738E0,1.026519775E0,9.549758911E0,9.728742334E0
3.320007330E-1,-1.093521118E0,1.127014160E0,9.915863037E0,1.003943669E1
3.343200690E-1,-5.455627441E-1,1.095916748E0,1.023649597E1,1.030943849E1
3.366699220E-1,-7.896423340E-2,9.786682129E-1,1.039682007E1,1.044307878E1
3.389892580E-1,1.316070557E-1,8.542327881E-1,1.048056030E1,1.051613895E1
3.413391120E-1,2.033843994E-1,7.154541016E-1,1.045903015E1,1.048544474E1
3.436889650E-1,1.698913574E-1,5.718841553E-1,1.027717590E1,1.029447712E1
3.460083010E-1,5.264282227E-2,4.618072510E-1,1.011207581E1,1.012275231E1
3.483581540E-1,-3.349304199E-2,3.948211670E-1,9.937393188E0,9.945289786E0
3.506774900E-1,-2.129669189E-1,4.115600586E-1,9.875183105E0,9.886049664E0
3.530273440E-1,-2.560272217E-1,4.331054688E-1,9.808181763E0,9.821077323E0
3.553771970E-1,-2.536315918E-1,4.833526611E-1,9.772293091E0,9.787526298E0
3.576965330E-1,-2.129669189E-1,5.312042236E-1,9.753143311E0,9.769920024E0
3.600463870E-1,-2.536315918E-1,6.053771973E-1,9.714859009E0,9.737006526E0
3.623657230E-1,-1.411743164E-1,6.412811279E-1,9.667007446E0,9.689282979E0
3.647155760E-1,-5.264282227E-2,6.986999512E-1,9.698104858E0,9.723383708E0
3.670654300E-1,-4.067993164E-2,7.657012939E-1,9.753143311E0,9.783238613E0
3.693847660E-1,-8.853149414E-2,8.231353760E-1,9.793823242E0,9.828751873E0
3.717346190E-1,-3.828430176E-2,8.087768555E-1,9.777069092E0,9.810538503E0
3.740539550E-1,3.349304199E-2,7.680969238E-1,9.765106201E0,9.795325099E0
3.764038090E-1,5.024719238E-2,7.010955811E-1,9.753143311E0,9.778438742E0
3.787536620E-1,1.268157959E-1,5.934143066E-1,9.743576050E0,9.762453433E0
3.810729980E-1,2.368927002E-1,4.833526611E-1,9.734008789E0,9.748880708E0
3.834228520E-1,3.302154541E-1,3.995971680E-1,9.729217529E0,9.743017699E0
3.857421880E-1,3.852386475E-1,3.349914551E-1,9.683746338E0,9.697193987E0
3.880920410E-1,3.469543457E-1,3.469543457E-1,9.671783447E0,9.684221687E0
3.904418950E-1,2.679901123E-1,6.340942383E-1,9.604797363E0,9.629435424E0
3.927612310E-1,1.674957275E-1,1.304092407E0,9.734008789E0,9.822404946E0
3.951110840E-1,-5.766754150E-1,2.014755249E0,1.051406860E1,1.072088764E1
3.974304200E-1,-6.149597168E-1,1.703689575E0,1.057627869E1,1.073025650E1
3.997802740E-1,-1.411743164E-1,1.447662354E0,1.010488892E1,1.020903700E1
4.021301270E-1,3.588867188E-2,1.004989624E0,9.662216187E0,9.714407536E0
4.044494630E-1,3.086700439E-1,3.828582764E-1,9.279373169E0,9.292396035E0
4.067993170E-1,7.393798828E-1,-3.732757568E-1,9.150161743E0,9.187571895E0
4.091491700E-1,1.222732544E0,-1.232299805E0,9.140579224E0,9.303968305E0
4.114685060E-1,1.593612671E0,-1.904693604E0,9.176467896E0,9.506577834E0
4.138183600E-1,2.065002441E0,-2.251647949E0,9.245864868E0,9.737564928E0
4.161376950E-1,2.483749390E0,-2.155929565E0,9.219543457E0,9.788617108E0
4.184875490E-1,2.505279541E0,-1.940582275E0,9.394226074E0,9.914321393E0
4.208068850E-1,2.210968018E0,-1.806579590E0,9.585647583E0,1.000183728E1
4.231567380E-1,1.708480835E0,-1.763504028E0,9.757934570E0,1.006211411E1
4.255065920E-1,1.107879639E0,-1.694122314E0,9.896713257E0,1.010160289E1
4.278259280E-1,6.340942383E-1,-1.514663696E0,1.003549194E1,1.016894194E1
4.301757810E-1,4.163513184E-1,-1.249053955E0,1.001875305E1,1.010489470E1
4.324951170E-1,4.091796875E-1,-9.236297607E-1,9.848861694E0,9.900535169E0
4.348449710E-1,5.288085938E-1,-5.694885254E-1,9.597610474E0,9.629022926E0
4.371948240E-1,7.704925537E-1,-2.727813721E-1,9.296112061E0,9.331975562E0
4.395141600E-1,9.236297607E-1,1.698913574E-1,8.903686523E0,8.953077053E0
4.418640140E-1,8.733825684E-1,1.287338257E0,8.547164917E0,8.687581080E0
4.441833500E-1,2.297058105E-1,1.012161255E0,9.602401733E0,9.658330819E0
4.465332030E-1,1.136596680E0,7.130584717E-1,9.343978882E0,9.439822336E0
4.488830570E-1,1.514663696E0,4.019927979E-1,9.178863525E0,9.311677611E0
4.512023930E-1,2.084152222E0,3.828430176E-2,9.064010620E0,9.300615286E0
4.535522460E-1,2.646469116E0,-4.115600586E-1,9.037689209E0,9.426187283E0
4.558715820E-1,2.766098022E0,-7.513427734E-1,9.035293579E0,9.479047647E0
4.582214360E-1,2.275573730E0,-9.044799805E-1,9.142974854E0,9.465215740E0
4.605712890E-1,1.507476807E0,-8.805541992E-1,9.293716431E0,9.456269196E0
4.628906250E-1,7.154541016E-1,-6.891326904E-1,9.461227417E0,9.513233029E0
4.652404790E-1,6.700134277E-2,-3.661041260E-1,9.530609131E0,9.537873548E0
4.675598150E-1,-2.344970703E-1,-5.264282227E-2,9.585647583E0,9.588659955E0
4.699096680E-1,-2.177429199E-1,1.292114258E-1,9.638290405E0,9.641615503E0
4.722595220E-1,4.547119141E-2,2.895355225E-1,9.683746338E0,9.688180509E0
4.745788580E-1,3.158569336E-1,3.684997559E-1,9.724426270E0,9.736530385E0
4.769287110E-1,5.910339355E-1,3.924255371E-1,9.726821899E0,9.752660313E0
4.792480470E-1,9.044799805E-1,1.459655762E-1,9.525833130E0,9.569790322E0
4.815979010E-1,1.282546997E0,-7.178497314E-1,9.257827759E0,9.373772445E0
4.839477540E-1,7.944183350E-1,-4.235229492E-1,9.528213501E0,9.570649126E0
4.862670900E-1,4.689941406E-1,5.981445312E-2,9.870391846E0,9.881708782E0
4.886169440E-1,4.522399902E-1,5.120697021E-1,1.006420898E1,1.008737027E1
4.909362790E-1,5.383911133E-1,8.422698975E-1,1.009771729E1,1.014707731E1
4.932861330E-1,5.838470459E-1,9.260253906E-1,9.970886230E0,1.003080120E1
4.956359870E-1,5.670928955E-1,8.661956787E-1,9.755538940E0,9.810322590E0
4.979553220E-1,5.575256348E-1,7.322082520E-1,9.576080322E0,9.620201562E0
5.003051760E-1,6.340942383E-1,5.503540039E-1,9.466003418E0,9.503167143E0
5.026245120E-1,1.098312378E0,6.580200195E-1,9.162124634E0,9.251151725E0
5.049743650E-1,1.727615356E0,8.949127197E-1,8.702697754E0,8.917537317E0
5.073242190E-1,1.473983765E0,7.944183350E-1,8.827117920E0,8.984527778E0
5.096435550E-1,1.031311035E0,5.886383057E-1,9.171691895E0,9.248244683E0
5.119934080E-1,7.010955811E-1,3.732757568E-1,9.525833130E0,9.558889403E0
5.143127440E-1,4.857482910E-1,1.986083984E-1,9.748352051E0,9.762467127E0
5.166625980E-1,3.086700439E-1,6.700134277E-2,9.750747681E0,9.755862171E0
5.190124510E-1,2.081756592E-1,4.785156250E-2,9.638290405E0,9.640657074E0
5.213317870E-1,1.698913574E-1,4.785156250E-2,9.521041870E0,9.522677729E0
5.236816410E-1,1.459655762E-1,4.785156250E-2,9.554534912E0,9.555769624E0
5.260009770E-1,1.244201660E-1,5.503845215E-2,9.695724487E0,9.696678965E0
5.283508300E-1,5.503845215E-2,5.981445312E-2,9.841674805E0,9.842010463E0
5.307006840E-1,5.503845215E-2,9.571838379E-2,9.944564819E0,9.945177760E0
5.330200200E-1,4.785156250E-2,1.028900146E-1,1.003549194E1,1.003613345E1
5.353698730E-1,-7.177734375E-2,7.896423340E-2,1.008335876E1,1.008392341E1
5.377197270E-1,-9.571838379E-2,8.375549316E-2,1.009771729E1,1.009851828E1
5.400390630E-1,-9.092712402E-2,1.148529053E-1,1.007617188E1,1.007723665E1
5.423889160E-1,-7.177734375E-2,1.363983154E-1,1.004985046E1,1.005103233E1
5.447082520E-1,-1.196289062E-2,1.770629883E-1,1.003071594E1,1.003228572E1
5.470581060E-1,2.392578125E-2,2.153472900E-1,1.002114868E1,1.002349080E1
5.494079590E-1,4.785156250E-2,2.512512207E-1,1.004507446E1,1.004833011E1
5.517578130E-1,5.503845215E-2,2.560272217E-1,1.003071594E1,1.003413382E1
5.541076660E-1,9.092712402E-2,2.416687012E-1,1.001156616E1,1.001489533E1
5.564270020E-1,9.092712402E-2,2.033843994E-1,9.973281860E0,9.975769846E0
5.587768560E-1,1.196441650E-1,1.770629883E-1,9.961318970E0,9.963610874E0
5.611267090E-1,1.172485352E-1,1.555328369E-1,9.942184448E0,9.944092180E0
5.634460450E-1,1.028900146E-1,1.220397949E-1,9.923034668E0,9.924318470E0
5.657958990E-1,1.172485352E-1,1.004943848E-1,9.884750366E0,9.885956511E0
5.681152350E-1,6.628112793E-1,3.517456055E-1,9.585647583E0,9.614971833E0
5.704650880E-1,8.207397461E-1,4.522399902E-1,9.451644897E0,9.497985366E0
5.728149420E-1,5.934143066E-1,4.067840576E-1,9.633499146E0,9.660327096E0
5.751342780E-1,3.373870850E-1,3.086700439E-1,9.863220215E0,9.873814878E0
5.774841310E-1,1.411743164E-1,1.579284668E-1,1.004028320E1,1.004251753E1
5.798034670E-1,4.785156250E-2,4.785156250E-2,1.005464172E1,1.005486945E1
5.821533200E-1,4.791259766E-3,-3.588867188E-2,9.958923340E0,9.958989158E0
5.845031740E-1,-1.914978027E-2,-1.052856445E-1,9.822540283E0,9.823123200E0
5.868225100E-1,-1.914978027E-2,-1.579284668E-1,9.784255981E0,9.785549204E0
5.891723630E-1,-5.024719238E-2,-1.770629883E-1,9.836898804E0,9.838620541E0
5.914916990E-1,-5.024719238E-2,-1.986083984E-1,9.934997559E0,9.937109568E0
5.938415530E-1,-1.914978027E-2,-2.057800293E-1,1.000679016E1,1.000892409E1
5.961914060E-1,-2.871704102E-2,-2.392883301E-1,1.002592468E1,1.002882093E1
5.985107420E-1,-7.177734375E-2,-2.943115234E-1,1.004507446E1,1.004964140E1
6.008605960E-1,-1.004943848E-1,-3.158569336E-1,1.001156616E1,1.001705155E1
6.031799320E-1,-4.307556152E-2,-3.062744141E-1,9.930221558E0,9.935036975E0
6.055297850E-1,2.871704102E-2,-2.895355225E-1,9.860824585E0,9.865116167E0
6.078796390E-1,4.785156250E-2,-2.608184814E-1,9.827316284E0,9.830893215E0
6.101989750E-1,5.024719238E-2,-2.344970703E-1,9.800994873E0,9.803928506E0
6.125488280E-1,1.052856445E-1,-2.081756592E-1,9.762710571E0,9.765497421E0
6.148986820E-1,1.363983154E-1,-1.794586182E-1,9.755538940E0,9.758142749E0
6.172180180E-1,1.674957275E-1,-1.722869873E-1,9.753143311E0,9.756102811E0
6.195678710E-1,1.794586182E-1,-1.531372070E-1,9.719650269E0,9.722512934E0
6.218872070E-1,1.938171387E-1,-1.459655762E-1,9.681365967E0,9.684405920E0
6.242370610E-1,1.746826172E-1,-1.722869873E-1,9.664611816E0,9.667725606E0
6.265869140E-1,1.483612061E-1,-1.651000977E-1,9.645462036E0,9.648015702E0
6.289062500E-1,1.100769043E-1,-1.579284668E-1,9.609573364E0,9.611501369E0
6.312561040E-1,8.853149414E-2,-1.555328369E-1,9.564117432E0,9.565791684E0
6.335754400E-1,8.375549316E-2,-1.411743164E-1,9.542572021E0,9.543983757E0
6.359252930E-1,4.977111816E-1,4.785156250E-2,9.317657471E0,9.331063548E0
6.382751470E-1,6.532440186E-1,1.316070557E-1,9.205184937E0,9.229272879E0
6.405944830E-1,4.187469482E-1,1.028900146E-1,9.446868896E0,9.456704886E0
6.429443360E-1,1.674957275E-1,4.785156250E-2,9.731613159E0,9.733172107E0
6.452636720E-1,2.153015137E-2,-8.375549316E-2,9.906280518E0,9.906657974E0
6.476135260E-1,-1.483612061E-1,-2.464599609E-1,9.990036011E0,9.994176957E0
6.499633790E-1,-2.416687012E-1,-3.780670166E-1,9.951751709E0,9.961862301E0
6.522827150E-1,-2.775726318E-1,-4.689941406E-1,9.872787476E0,9.887817485E0
6.546325690E-1,-2.775726318E-1,-5.001068115E-1,9.863220215E0,9.879790807E0
6.569519040E-1,-2.679901123E-1,-4.594268799E-1,9.915863037E0,9.930117398E0
6.593017580E-1,-2.368927002E-1,-3.972015381E-1,9.968505859E0,9.979228241E0
6.616516120E-1,-1.459655762E-1,-3.373870850E-1,9.975677490E0,9.982448466E0
6.639709470E-1,-5.264282227E-2,-2.536315918E-1,9.956542969E0,9.959912055E0
6.663208010E-1,4.307556152E-2,-2.057800293E-1,9.930221558E0,9.932446884E0
6.686706540E-1,4.785156250E-2,-1.555328369E-1,9.896713257E0,9.898050996E0
6.709899900E-1,4.785156250E-2,-1.579284668E-1,9.889541626E0,9.890918296E0
6.733398440E-1,4.785156250E-2,-1.555328369E-1,9.851257324E0,9.852601235E0
6.756591800E-1,4.547119141E-2,-1.842498779E-1,9.863220215E0,9.865045801E0
6.780090330E-1,4.547119141E-2,-2.177429199E-1,9.827316284E0,9.829833415E0
6.803283690E-1,3.349304199E-2,-2.344970703E-1,9.800994873E0,9.803856953E0
6.826782230E-1,3.588867188E-2,-2.249298096E-1,9.769897461E0,9.772552267E0
6.850280760E-1,2.871704102E-2,-2.368927002E-1,9.755538940E0,9.758456991E0
6.873474120E-1,3.111267090E-2,-2.440643311E-1,9.753143311E0,9.756246196E0
6.896972660E-1,3.349304199E-2,-2.249298096E-1,9.750747681E0,9.753399178E0
6.920471190E-1,4.067993164E-2,-2.129669189E-1,9.753143311E0,9.755552993E0
6.943664550E-1,4.307556152E-2,-1.938171387E-1,9.750747681E0,9.752768885E0
6.967163090E-1,3.588867188E-2,-1.770629883E-1,9.738784790E0,9.740460384E0
6.990356450E-1,3.349304199E-2,-1.627044678E-1,9.734008789E0,9.735426115E0
7.013854980E-1,9.567260742E-3,-1.292114258E-1,9.729217529E0,9.730080208E0
7.037353520E-1,-9.567260742E-3,-1.100769043E-1,9.738784790E0,9.739411566E0
7.060546880E-1,9.567260742E-3,-5.743408203E-2,9.712463379E0,9.712637906E0
7.084045410E-1,5.288085938E-1,1.914215088E-1,9.372680664E0,9.389537984E0
7.107238770E-1,3.565368652E-1,1.890258789E-1,9.446868896E0,9.455484190E0
7.130737310E-1,5.264282227E-2,1.052856445E-1,9.669403076E0,9.670119554E0
7.154235840E-1,-1.938171387E-1,2.153015137E-2,9.872787476E0,9.874713220E0
7.177429200E-1,-3.637084961E-1,-1.316070557E-1,9.942184448E0,9.949705317E0
7.200927740E-1,-3.637084961E-1,-2.584228516E-1,9.793823242E0,9.803980821E0
7.224121100E-1,-3.230285645E-1,-3.182525635E-1,9.693328857E0,9.703929951E0
7.247619630E-1,-2.560272217E-1,-3.493499756E-1,9.619140625E0,9.628886836E0
7.271118170E-1,-1.962127686E-1,-3.469543457E-1,9.664611816E0,9.672827835E0
7.294311530E-1,-1.292114258E-1,-3.158569336E-1,9.734008789E0,9.739989132E0
7.317810060E-1,-3.828430176E-2,-2.536315918E-1,9.753143311E0,9.756515726E0
7.341003420E-1,4.785156250E-2,-2.105712891E-1,9.753143311E0,9.755533531E0
7.364501950E-1,5.024719238E-2,-1.698913574E-1,9.750747681E0,9.752357058E0
7.388000490E-1,6.460571289E-2,-1.340026855E-1,9.753143311E0,9.754277782E0
7.411193850E-1,6.700134277E-2,-1.411743164E-1,9.750747681E0,9.751999780E0
7.434692380E-1,4.785156250E-2,-1.603240967E-1,9.750747681E0,9.752183034E0
7.457885740E-1,4.785156250E-2,-1.962127686E-1,9.753143311E0,9.755234167E0
7.481384280E-1,3.588867188E-2,-2.201385498E-1,9.743576050E0,9.746128627E0
7.504882810E-1,2.392578125E-2,-2.297058105E-1,9.707687378E0,9.710434152E0
7.528076170E-1,-2.392578125E-2,-2.321014404E-1,9.710067749E0,9.712870802E0
7.551574710E-1,-2.632141113E-2,-2.440643311E-1,9.700500488E0,9.703606028E0
7.574768070E-1,-4.785156250E-2,-2.416687012E-1,9.683746338E0,9.686879615E0
7.598266600E-1,-4.547119141E-2,-2.416687012E-1,9.664611816E0,9.667739806E0
7.621765140E-1,-2.392578125E-2,-2.225341797E-1,9.633499146E0,9.636098780E0
7.644958500E-1,-2.395629883E-3,-2.201385498E-1,9.611968994E0,9.614489829E0
7.668457030E-1,2.392578125E-2,-2.249298096E-1,9.592819214E0,9.595485727E0
7.691650390E-1,4.785156250E-2,-2.297058105E-1,9.585647583E0,9.588518870E0
7.715148930E-1,4.785156250E-2,-2.344970703E-1,9.585647583E0,9.588634847E0
7.738647460E-1,4.785156250E-2,-2.488555908E-1,9.585647583E0,9.588996739E0
7.761840820E-1,4.785156250E-2,-2.512512207E-1,9.583251953E0,9.586664433E0
7.785339360E-1,4.547119141E-2,-2.321014404E-1,9.607177734E0,9.610088591E0
7.808532720E-1,3.828430176E-2,-2.105712891E-1,9.633499146E0,9.635876283E0
7.832031250E-1,-7.171630859E-3,-1.770629883E-1,9.650253296E0,9.651880201E0
7.855529790E-1,-2.871704102E-2,-1.794586182E-1,9.678970337E0,9.680676466E0
7.878723150E-1,-4.785156250E-2,-1.507415771E-1,9.686141968E0,9.687433046E0
7.902221680E-1,-3.111267090E-2,-1.316070557E-1,9.690933228E0,9.691876765E0
7.925720220E-1,-4.785156250E-2,-1.100769043E-1,9.683746338E0,9.684490169E0
7.948913580E-1,-7.417297363E-2,-9.092712402E-2,9.681365967E0,9.682077068E0
7.972412110E-1,-7.656860352E-2,-6.939697266E-2,9.681365967E0,9.681917459E0
7.995605470E-1,-6.221008301E-2,-5.981445312E-2,9.652648926E0,9.653034712E0
8.019104010E-1,-5.981445312E-2,-4.547119141E-2,9.621536255E0,9.621829623E0
8.042602540E-1,-7.177734375E-2,-2.871704102E-2,9.602401733E0,9.602712935E0
8.065795900E-1,-8.613586426E-2,2.395629883E-3,9.602401733E0,9.602788354E0
8.089294440E-1,-7.656860352E-2,3.349304199E-2,9.595214844E0,9.595578796E0
8.112487790E-1,-7.417297363E-2,2.871704102E-2,9.585647583E0,9.585977565E0
8.135986330E-1,-6.460571289E-2,4.547119141E-2,9.585647583E0,9.585973144E0
8.159484870E-1,-6.460571289E-2,4.785156250E-2,9.578475952E0,9.578813352E0
8.182678220E-1,-7.656860352E-2,4.785156250E-2,9.580856323E0,9.581281773E0
8.206176760E-1,-7.177734375E-2,4.785156250E-2,9.566513062E0,9.566902002E0
8.229370120E-1,-5.503845215E-2,4.785156250E-2,9.521041870E0,9.521321195E0
8.252868650E-1,-5.981445312E-2,4.785156250E-2,9.494720459E0,9.495029444E0
8.276367190E-1,-6.700134277E-2,4.785156250E-2,9.489929199E0,9.490286358E0
8.299560550E-1,-5.503845215E-2,4.785156250E-2,9.461227417E0,9.461508508E0
8.323059080E-1,-6.939697266E-2,4.785156250E-2,9.432510376E0,9.432887029E0
8.346252440E-1,-5.743408203E-2,4.785156250E-2,9.403793335E0,9.404090468E0
8.370056150E-1,-6.939697266E-2,4.785156250E-2,9.399002075E0,9.399380071E0
8.393554690E-1,-5.024719238E-2,3.111267090E-2,9.379867554E0,9.380053737E0
8.416748050E-1,-2.632141113E-2,2.392578125E-2,9.394226074E0,9.394293416E0
8.440246580E-1,-2.153015137E-2,2.392578125E-2,9.418151855E0,9.418206855E0
8.463439940E-1,-2.153015137E-2,2.153015137E-2,9.420547485E0,9.420596691E0
8.486938480E-1,-5.264282227E-2,1.675415039E-2,9.425323486E0,9.425485388E0
8.510437010E-1,-6.221008301E-2,3.111267090E-2,9.410964966E0,9.411222008E0
8.533630370E-1,-9.092712402E-2,4.785156250E-2,9.422943115E0,9.423503301E0
8.557128910E-1,-1.124572754E-1,4.785156250E-2,9.418151855E0,9.418944781E0
8.580322270E-1,-1.435699463E-1,4.785156250E-2,9.410964966E0,9.412181665E0
8.603820800E-1,-1.507415771E-1,4.785156250E-2,9.420547485E0,9.421874958E0
8.627319340E-1,-1.579284668E-1,4.785156250E-2,9.437286377E0,9.438729010E0
8.650512700E-1,-1.603240967E-1,4.785156250E-2,9.442077637E0,9.443559905E0
8.674011230E-1,-1.531372070E-1,5.264282227E-2,9.451644897E0,9.453031976E0
8.697204590E-1,-1.483612061E-1,5.024719238E-2,9.449264526E0,9.450562730E0
8.720703130E-1,-1.340026855E-1,5.024719238E-2,9.449264526E0,9.450348226E0
8.744201660E-1,-1.316070557E-1,5.503845215E-2,9.473190308E0,9.474264312E0
8.767395020E-1,-1.363983154E-1,5.264282227E-2,9.475585938E0,9.476713809E0
8.790893560E-1,-1.292114258E-1,4.785156250E-2,9.477966309E0,9.478967808E0
8.814086920E-1,-1.004943848E-1,4.785156250E-2,9.477966309E0,9.478619849E0
8.837585450E-1,-9.332275391E-2,4.785156250E-2,9.477966309E0,9.478546527E0
8.861083990E-1,-8.613586426E-2,4.785156250E-2,9.475585938E0,9.476098249E0
8.884277350E-1,-6.460571289E-2,3.588867188E-2,9.477966309E0,9.478254441E0
8.907775880E-1,-6.221008301E-2,3.349304199E-2,9.473190308E0,9.473453778E0
8.930969240E-1,-8.613586426E-2,7.171630859E-3,9.477966309E0,9.478360416E0
8.954467780E-1,-9.092712402E-2,-2.395629883E-3,9.494720459E0,9.495156137E0
8.977966310E-1,-1.028900146E-1,-1.914978027E-2,9.511474609E0,9.512050374E0
9.001159670E-1,-1.004943848E-1,-3.828430176E-2,9.525833130E0,9.526440134E0
9.024658200E-1,-8.853149414E-2,-4.307556152E-2,9.537796021E0,9.538304161E0
9.047851560E-1,-8.375549316E-2,-4.307556152E-2,9.566513062E0,9.566976672E0
9.071960450E-1,-7.417297363E-2,-5.981445312E-2,9.588043213E0,9.588516676E0
9.094848630E-1,-8.135986328E-2,-6.460571289E-2,9.592819214E0,9.593381771E0
9.118041990E-1,-1.004943848E-1,-7.656860352E-2,9.607177734E0,9.608008425E0
9.141540530E-1,-1.292114258E-1,-8.613586426E-2,9.623931885E0,9.625184668E0
9.165039060E-1,-1.244201660E-1,-1.028900146E-1,9.662216187E0,9.663564993E0
9.188232420E-1,-1.220397949E-1,-1.004943848E-1,9.693328857E0,9.694617949E0
9.211730960E-1,-1.435699463E-1,-1.076812744E-1,9.731613159E0,9.733267810E0
9.234924320E-1,-1.483612061E-1,-1.292114258E-1,9.748352051E0,9.750337140E0
9.258422850E-1,-1.627044678E-1,-1.459655762E-1,9.753143311E0,9.755592403E0
9.281616210E-1,-1.651000977E-1,-1.483612061E-1,9.753143311E0,9.755668789E0
9.305114750E-1,-1.603240967E-1,-1.579284668E-1,9.750747681E0,9.753344326E0
9.328613280E-1,-1.507415771E-1,-1.411743164E-1,9.750747681E0,9.752934612E0
9.351806640E-1,-1.220397949E-1,-1.411743164E-1,9.753143311E0,9.754928413E0
9.375305180E-1,-1.052856445E-1,-1.292114258E-1,9.748352051E0,9.749776837E0
9.398803710E-1,-1.100769043E-1,-1.196441650E-1,9.736389160E0,9.737746430E0
9.421997070E-1,-8.375549316E-2,-1.004943848E-1,9.722045898E0,9.722926028E0
9.445495610E-1,-6.939697266E-2,-6.939697266E-2,9.683746338E0,9.684243647E0
9.468688970E-1,-5.503845215E-2,-5.024719238E-2,9.659820557E0,9.660108032E0
9.492187500E-1,-4.547119141E-2,-2.871704102E-2,9.628723145E0,9.628873334E0
9.515686040E-1,-4.547119141E-2,-2.395629883E-3,9.592819214E0,9.592927282E0
9.538879400E-1,-4.547119141E-2,2.153015137E-2,9.559326172E0,9.559458564E0
9.562377930E-1,-7.656860352E-2,4.785156250E-2,9.549758911E0,9.550185746E0
9.585571290E-1,-9.571838379E-2,4.785156250E-2,9.540191650E0,9.540791818E0
9.609069830E-1,-9.809875488E-2,4.785156250E-2,9.537796021E0,9.538420523E0
9.632568360E-1,-1.052856445E-1,4.785156250E-2,9.544967651E0,9.545668248E0
9.655761720E-1,-1.124572754E-1,4.785156250E-2,9.549758911E0,9.550540910E0
9.679260260E-1,-1.124572754E-1,4.785156250E-2,9.559326172E0,9.560107388E0
9.702453620E-1,-1.244201660E-1,4.785156250E-2,9.540191650E0,9.541122936E0
9.725952150E-1,-1.268157959E-1,4.785156250E-2,9.533004761E0,9.533968313E0
9.749450690E-1,-1.172485352E-1,4.785156250E-2,9.530609131E0,9.531450435E0
9.772644040E-1,-1.004943848E-1,4.785156250E-2,9.528213501E0,9.528863595E0
9.796142580E-1,-8.375549316E-2,4.785156250E-2,9.544967651E0,9.545455056E0
9.819335940E-1,-8.375549316E-2,4.785156250E-2,9.523437500E0,9.523926006E0
9.842834470E-1,-6.700134277E-2,4.785156250E-2,9.518646240E0,9.519002322E0
9.866333010E-1,-6.221008301E-2,4.785156250E-2,9.492324829E0,9.492649289E0
9.889526370E-1,-5.743408203E-2,4.785156250E-2,9.487548828E0,9.487843338E0
9.913024900E-1,-6.460571289E-2,4.547119141E-2,9.482757568E0,9.483086661E0
9.936218260E-1,-7.417297363E-2,1.196289062E-2,9.518646240E0,9.518942745E0
9.959716800E-1,-9.092712402E-2,-9.567260742E-3,9.571289062E0,9.571725737E0
9.983215330E-1,-8.375549316E-2,-1.675415039E-2,9.616760254E0,9.617139568E0
1.000640869E0,-7.896423340E-2,-2.632141113E-2,9.659820557E0,9.660179157E0
1.002990723E0,-5.024719238E-2,-4.547119141E-2,9.717254639E0,9.717490938E0
1.005310059E0,-2.632141113E-2,-5.264282227E-2,9.729217529E0,9.729395552E0
1.007659912E0,-1.196289062E-2,-7.177734375E-2,9.745971680E0,9.746243332E0
1.010009766E0,-7.171630859E-3,-7.177734375E-2,9.750747681E0,9.751014499E0
1.012329102E0,7.171630859E-3,-7.656860352E-2,9.750747681E0,9.751050944E0
1.014678955E0,-4.791259766E-3,-6.221008301E-2,9.748352051E0,9.748551726E0
1.016998291E0,0.000000000E0,-5.743408203E-2,9.738784790E0,9.738954146E0
1.019348145E0,1.435852051E-2,-4.307556152E-2,9.717254639E0,9.717360721E0
1.021697998E0,9.567260742E-3,-4.067993164E-2,9.729217529E0,9.729307279E0
1.024017334E0,2.153015137E-2,-2.153015137E-2,9.722045898E0,9.722093578E0
1.026367188E0,1.196289062E-2,-1.675415039E-2,9.717254639E0,9.717276446E0
1.028686524E0,1.435852051E-2,-4.791259766E-3,9.700500488E0,9.700512298E0
1.031036377E0,2.632141113E-2,0.000000000E0,9.693328857E0,9.693364594E0
1.033386231E0,3.828430176E-2,-2.153015137E-2,9.676574707E0,9.676674392E0
1.035705567E0,4.547119141E-2,-3.111267090E-2,9.674179077E0,9.674335969E0
1.038055420E0,3.349304199E-2,-1.675415039E-2,9.643081665E0,9.643154385E0
1.040374756E0,1.435852051E-2,-1.196289062E-2,9.611968994E0,9.611987163E0
1.042724610E0,1.675415039E-2,-1.196289062E-2,9.604797363E0,9.604819426E0
1.045074463E0,1.196289062E-2,-9.567260742E-3,9.566513062E0,9.566525325E0
1.047393799E0,0.000000000E0,0.000000000E0,9.573684692E0,9.573684692E0
1.049743653E0,9.567260742E-3,-1.196289062E-2,9.533004761E0,9.533017068E0
1.052062988E0,2.395629883E-3,-1.196289062E-2,9.513870239E0,9.513878062E0
1.054412842E0,-2.395629883E-3,-3.349304199E-2,9.485153198E0,9.485212634E0
1.056762695E0,2.395629883E-3,-2.392578125E-2,9.499511719E0,9.499542151E0
1.059082031E0,-1.914978027E-2,-2.153015137E-2,9.521041870E0,9.521085471E0
1.061431885E0,-1.914978027E-2,2.395629883E-3,9.552154541E0,9.552174037E0
1.063751221E0,-3.828430176E-2,2.153015137E-2,9.597610474E0,9.597710979E0
1.066101074E0,-5.503845215E-2,4.547119141E-2,9.619140625E0,9.619405555E0
1.068450928E0,-7.417297363E-2,4.785156250E-2,9.645462036E0,9.645865917E0
1.070770264E0,-1.004943848E-1,4.785156250E-2,9.683746338E0,9.684385991E0
1.073120117E0,-1.172485352E-1,4.785156250E-2,9.700500488E0,9.701327059E0
1.075439453E0,-1.435699463E-1,4.785156250E-2,9.722045898E0,9.723223671E0
1.077789307E0,-1.459655762E-1,4.785156250E-2,9.698104858E0,9.699321294E0
1.080139160E0,-1.483612061E-1,5.024719238E-2,9.700500488E0,9.701765074E0
1.082458496E0,-1.411743164E-1,7.177734375E-2,9.729217529E0,9.730506457E0
1.084808350E0,-1.579284668E-1,1.244201660E-1,9.719650269E0,9.721729431E0
1.087127686E0,-1.674957275E-1,1.842498779E-1,9.738784790E0,9.741967564E0
1.089477539E0,-1.698913574E-1,2.560272217E-1,9.743576050E0,9.748419731E0
1.091827393E0,-2.010040283E-1,3.182525635E-1,9.707687378E0,9.714982323E0
1.094146729E0,-2.344970703E-1,3.948211670E-1,9.657424927E0,9.668336405E0
1.096496582E0,-2.512512207E-1,4.785614014E-1,9.635894775E0,9.651042240E0
1.098815918E0,-3.038940430E-1,5.527496338E-1,9.588043213E0,9.608769765E0
1.101165772E0,-3.445739746E-1,6.460571289E-1,9.542572021E0,9.570621810E0
1.103515625E0,-4.139556885E-1,7.178497314E-1,9.489929199E0,9.526039248E0
1.105834961E0,-5.383911133E-1,8.327026367E-1,9.391830444E0,9.444031860E0
1.108245850E0,-6.699829102E-1,9.308013916E-1,9.317657471E0,9.387971510E0
1.110504151E0,-8.231353760E-1,9.954071045E-1,9.209976196E0,9.300110144E0
1.112854004E0,-9.667053223E-1,1.036087036E0,9.119049072E0,9.228491291E0
1.115203858E0,-1.146163940E0,1.095916748E0,8.930007935E0,9.069717030E0
1.117523194E0,-1.289733887E0,1.153335571E0,8.767303467E0,8.936397849E0
1.119873047E0,-1.335189819E0,1.196411133E0,8.731414795E0,8.913570316E0
1.122192383E0,-1.225128174E0,1.220336914E0,8.729019165E0,8.898648033E0
1.124572754E0,-1.069595337E0,1.280166626E0,8.724227905E0,8.882286492E0
1.126922608E0,-8.661956787E-1,1.339981079E0,8.690734863E0,8.835989855E0
1.129241944E0,-7.226257324E-1,1.406982422E0,8.642868042E0,8.786407427E0
1.131591797E0,-6.484527588E-1,1.466796875E0,8.633300781E0,8.780994615E0
1.133911133E0,-5.958099365E-1,1.440475464E0,8.642868042E0,8.782319001E0
1.136260987E0,-6.149597168E-1,1.371093750E0,8.523239136E0,8.654691149E0
1.138610840E0,-7.537384033E-1,1.294509888E0,8.434707642E0,8.566689584E0
1.140930176E0,-1.799407959E0,1.347152710E0,8.470596313E0,8.763771524E0
1.143280029E0,-2.440673828E0,1.411758423E0,8.621337891E0,9.070690029E0
1.145599365E0,-1.825729370E0,1.371093750E0,8.987442017E0,9.272933722E0
1.147949219E0,-1.287338257E0,1.368698120E0,9.343978882E0,9.531029098E0
1.150299072E0,-9.954071045E-1,1.395019531E0,9.449264526E0,9.603411627E0
1.152618408E0,-8.733825684E-1,1.423736572E0,9.480361938E0,9.626374469E0
1.154968262E0,-8.374938965E-1,1.426116943E0,9.437286377E0,9.581105350E0
1.157287598E0,-8.614196777E-1,1.418945312E0,9.396621704E0,9.542114499E0
1.159637451E0,-8.709869385E-1,1.371093750E0,9.360717773E0,9.500608062E0
1.161987305E0,-8.566284180E-1,1.284942627E0,9.384643555E0,9.510858239E0
1.164306641E0,-8.111724854E-1,1.189239502E0,9.372680664E0,9.482585841E0
1.166656494E0,-7.680969238E-1,1.064804077E0,9.329620361E0,9.421549591E0
1.168975830E0,-7.633056641E-1,9.834442139E-1,9.226730347E0,9.310335705E0
1.171325684E0,-8.159484863E-1,9.020996094E-1,9.111862183E0,9.192692101E0
1.173675537E0,-9.355926514E-1,9.044799805E-1,9.006591797E0,9.100116122E0
1.175994873E0,-1.067199707E0,9.092712402E-1,8.872589111E0,8.982679274E0
1.178344727E0,-1.270584106E0,9.475555420E-1,8.724227905E0,8.867039981E0
1.180694580E0,-1.552947998E0,1.062408447E0,8.633300781E0,8.835962968E0
1.183013916E0,-1.679763794E0,1.179656982E0,8.587844849E0,8.829738170E0
1.185363770E0,-1.746765137E0,1.261016846E0,8.587844849E0,8.853950027E0
1.187683106E0,-1.691726685E0,1.323226929E0,8.633300781E0,8.896445979E0
1.190032959E0,-1.576873779E0,1.363906860E0,8.712265015E0,8.958255105E0
1.192382813E0,-1.454833984E0,1.378265381E0,8.819946289E0,9.044755935E0
1.194702149E0,-1.347152710E0,1.363906860E0,8.963516235E0,9.166225267E0
1.197052002E0,-1.227523804E0,1.308868408E0,9.111862183E0,9.286871574E0
1.199401856E0,-1.103088379E0,1.213165283E0,9.267395020E0,9.411332766E0
1.201721192E0,-9.690856934E-1,1.060012817E0,9.379867554E0,9.489186982E0
1.204071045E0,-8.614196777E-1,8.997039795E-1,9.525833130E0,9.606924999E0
1.206390381E0,-6.795654297E-1,6.963043213E-1,9.655044556E0,9.703944263E0
1.208740235E0,-5.431671143E-1,5.048828125E-1,9.753143311E0,9.781295497E0
1.211090088E0,-3.948211670E-1,3.230285645E-1,9.844070435E0,9.857279236E0
1.213409424E0,-2.775726318E-1,1.507415771E-1,9.918243408E0,9.923271733E0
1.215759278E0,-2.033843994E-1,4.307556152E-2,9.982849121E0,9.985013635E0
1.218078613E0,-1.579284668E-1,-7.656860352E-2,9.994827271E0,9.996368156E0
1.220428467E0,-1.531372070E-1,-1.746826172E-1,1.004507446E1,1.004776025E1
1.222778320E0,-1.866455078E-1,-1.890258789E-1,1.003549194E1,1.003900722E1
1.225097656E0,-2.392883301E-1,-1.651000977E-1,9.987640381E0,9.991870562E0
1.227447510E0,-3.469543457E-1,-8.375549316E-2,9.934997559E0,9.941406781E0
1.229766846E0,-4.665985107E-1,-7.171630859E-3,9.899108887E0,9.910102035E0
1.232116699E0,-5.694885254E-1,4.785156250E-2,9.846466064E0,9.863037104E0
1.234466553E0,-6.771697998E-1,1.316070557E-1,9.753143311E0,9.777509079E0
1.236785889E0,-7.657012939E-1,2.488555908E-1,9.695724487E0,9.729095585E0
1.239135742E0,-8.422698975E-1,3.613128662E-1,9.592819214E0,9.636500715E0
1.241455078E0,-8.901367188E-1,4.689941406E-1,9.466003418E0,9.519323484E0
1.243804932E0,-9.619140625E-1,5.862426758E-1,9.305694580E0,9.373628473E0
1.246154785E0,-1.021728516E0,6.819610596E-1,9.181259155E0,9.263072909E0
1.248474121E0,-1.057632446E0,7.824554443E-1,9.052047729E0,9.147152071E0
1.250823975E0,-1.091125488E0,8.685913086E-1,8.965911865E0,9.073730284E0
1.253143311E0,-1.129409790E0,9.331970215E-1,8.858230591E0,8.978567389E0
1.255493164E0,-1.184448242E0,9.930267334E-1,8.767303467E0,8.902506940E0
1.257843018E0,-1.234695435E0,1.052841187E0,8.654846191E0,8.805640804E0
1.260162354E0,-1.258621216E0,1.129409790E0,8.551940918E0,8.717533327E0
1.262512207E0,-1.292129517E0,1.170089722E0,8.458633423E0,8.636387441E0
1.264831543E0,-1.268188477E0,1.184448242E0,8.382064819E0,8.559803169E0
1.267181397E0,-1.251449585E0,1.177261353E0,8.307876587E0,8.483683383E0
1.269531250E0,-1.234695435E0,1.150955200E0,8.298309326E0,8.468241161E0
1.271850586E0,-1.191619873E0,1.110275269E0,8.264816284E0,8.423767406E0
1.274200440E0,-1.165298462E0,1.045669556E0,8.271987915E0,8.418855587E0
1.276519776E0,-1.155731201E0,9.810638428E-1,8.327026367E0,8.463897979E0
1.278869629E0,-1.143768311E0,8.853454590E-1,8.358123779E0,8.482350832E0
1.281219483E0,-1.115051270E0,7.944183350E-1,8.413162231E0,8.523833560E0
1.283538819E0,-1.079162598E0,6.963043213E-1,8.489730835E0,8.586324084E0
1.285888672E0,-1.088729858E0,5.982055664E-1,8.551940918E0,8.641694051E0
1.288208008E0,-1.045669556E0,4.881286621E-1,8.614166260E0,8.691119304E0
1.290557862E0,-1.012161255E0,4.091796875E-1,8.640487671E0,8.709186277E0
1.292907715E0,-9.954071045E-1,2.751770020E-1,8.662017822E0,8.723365775E0
1.295227051E0,-1.014556885E0,1.722869873E-1,8.688339233E0,8.749071214E0
1.297576904E0,-1.060012817E0,9.092712402E-2,8.733810425E0,8.798371409E0
1.299896240E0,-1.136596680E0,4.785156250E-2,8.824737549E0,8.897760088E0
1.302246094E0,-1.196411133E0,3.111267090E-2,8.915664673E0,8.995634728E0
1.304595947E0,-1.251449585E0,1.914978027E-2,9.068801880E0,9.154761620E0
1.306915283E0,-1.284942627E0,2.632141113E-2,9.207580566E0,9.296844102E0
1.309265137E0,-1.263412476E0,3.111267090E-2,9.363113403E0,9.448019458E0
1.311584473E0,-1.220336914E0,3.349304199E-2,9.504287720E0,9.582370741E0
1.313934326E0,-1.184448242E0,4.785156250E-2,9.633499146E0,9.706158519E0
1.316284180E0,-1.172485352E0,4.785156250E-2,9.736389160E0,9.806848910E0
1.318603516E0,-1.184448242E0,4.785156250E-2,9.755538940E0,9.827296039E0
1.320953369E0,-1.217941284E0,5.264282227E-2,9.784255981E0,9.859909601E0
1.323272705E0,-1.232299805E0,7.417297363E-2,9.798614502E0,9.876077693E0
1.325622559E0,-1.246658325E0,9.809875488E-2,9.791427612E0,9.870959175E0
1.327972412E0,-1.296905518E0,1.340026855E-1,9.767501831E0,9.854136830E0
1.330291748E0,-1.380661011E0,1.555328369E-1,9.753143311E0,9.851610007E0
1.332641602E0,-1.421340942E0,1.818542480E-1,9.750747681E0,9.855473676E0
1.334960938E0,-1.488342285E0,2.201385498E-1,9.731613159E0,9.847228972E0
1.337310791E0,-1.593612671E0,2.608184814E-1,9.724426270E0,9.857590674E0
1.339660645E0,-1.639083862E0,3.110656738E-1,9.734008789E0,9.875944758E0
1.341979981E0,-1.665405273E0,3.493499756E-1,9.741180420E0,9.888691324E0
1.344329834E0,-1.689331055E0,4.187469482E-1,9.712463379E0,9.867174535E0
1.346649170E0,-1.703689575E0,4.713897705E-1,9.631118774E0,9.791997515E0
1.348999024E0,-1.703689575E0,5.048828125E-1,9.501892090E0,9.666613580E0
1.351348877E0,-1.658233643E0,5.479583740E-1,9.363113403E0,9.524593944E0
1.353668213E0,-1.584045410E0,5.694885254E-1,9.181259155E0,9.334293584E0
1.356018067E0,-1.531402588E0,6.221313477E-1,9.054443359E0,9.204085280E0
1.358337403E0,-1.485946655E0,6.532440186E-1,8.918045044E0,9.064562461E0
1.360687256E0,-1.454833984E0,6.963043213E-1,8.767303467E0,8.914426045E0
1.363037110E0,-1.430908203E0,7.417755127E-1,8.611770630E0,8.761296855E0
1.365356445E0,-1.433303833E0,7.585296631E-1,8.501693726E0,8.654971019E0
1.367706299E0,-1.418945312E0,7.680969238E-1,8.427520752E0,8.580587667E0
1.370025635E0,-1.402191162E0,7.585296631E-1,8.398803711E0,8.548766641E0
1.372375488E0,-1.368698120E0,7.585296631E-1,8.405990601E0,8.550402316E0
1.374725342E0,-1.316055298E0,6.986999512E-1,8.458633423E0,8.588868526E0
1.377044678E0,-1.232299805E0,6.316986084E-1,8.535202026E0,8.646807479E0
1.379394531E0,-1.174880981E0,5.503540039E-1,8.662017822E0,8.758640739E0
1.381744385E0,-1.093521118E0,4.474639893E-1,8.867797852E0,8.946164049E0
1.384063721E0,-1.043273926E0,3.541412354E-1,9.073577881E0,9.140221664E0
1.386413574E0,-1.036087036E0,2.871398926E-1,9.315261841E0,9.377101302E0
1.388732910E0,-1.028915405E0,2.440643311E-1,9.590438843E0,9.648562147E0
1.391082764E0,-1.031311035E0,2.392883301E-1,9.815353394E0,9.872285632E0
1.393432617E0,-1.038482666E0,2.321014404E-1,1.006420898E1,1.012030730E1
1.395751953E0,-1.036087036E0,2.153472900E-1,1.024845886E1,1.030294909E1
1.398101807E0,-9.954071045E-1,1.794586182E-1,1.040399170E1,1.045304185E1
1.400421143E0,-9.810638428E-1,1.052856445E-1,1.050210571E1,1.054835512E1
1.402770996E0,-1.002593994E0,4.785156250E-2,1.054995728E1,1.059759798E1
1.405120850E0,-1.064804077E0,-6.939697266E-2,1.058345032E1,1.063710695E1
1.407440186E0,-1.105484009E0,-2.249298096E-1,1.057148743E1,1.063151140E1
1.409820557E0,-1.124633789E0,-3.517456055E-1,1.048774719E1,1.055373712E1
1.412139893E0,-1.095916748E0,-4.737854004E-1,1.040878296E1,1.047703531E1
1.414489746E0,-1.052841187E0,-6.006011963E-1,1.030827332E1,1.037929165E1
1.416839600E0,-1.000198364E0,-7.393798828E-1,1.021734619E1,1.029277623E1
1.419158936E0,-9.475555420E-1,-8.590240479E-1,1.010728455E1,1.018788421E1
1.421508789E0,-9.403839111E-1,-9.355926514E-1,9.978073120E0,1.006586304E1
1.423828125E0,-9.236297607E-1,-9.667053223E-1,9.836898804E0,9.927345526E0
1.426177979E0,-9.116668701E-1,-9.379882812E-1,9.745971680E0,9.833357640E0
1.428527832E0,-8.949127197E-1,-8.470611572E-1,9.623931885E0,9.702496911E0
1.430847168E0,-8.709869385E-1,-7.513427734E-1,9.523437500E0,9.592653232E0
1.433197022E0,-8.350982666E-1,-6.269226074E-1,9.446868896E0,9.504407031E0
1.435516358E0,-7.824554443E-1,-4.857482910E-1,9.387039185E0,9.432109657E0
1.437866211E0,-7.417755127E-1,-3.756713867E-1,9.327224731E0,9.364212786E0
1.440216065E0,-7.010955811E-1,-2.751770020E-1,9.243469238E0,9.274102704E0
1.442535401E0,-6.484527588E-1,-2.297058105E-1,9.198013306E0,9.223703405E0
1.444885254E0,-6.316986084E-1,-1.986083984E-1,9.164505005E0,9.188397053E0
1.447204590E0,-6.293182373E-1,-1.842498779E-1,9.140579224E0,9.164069948E0
1.449554444E0,-6.628112793E-1,-1.531372070E-1,9.123840332E0,9.149165656E0
1.451904297E0,-7.034912109E-1,-1.363983154E-1,9.114257812E0,9.142384801E0
1.454223633E0,-7.441711426E-1,-9.332275391E-2,9.099899292E0,9.130753909E0
1.456573487E0,-8.231353760E-1,-1.004943848E-1,9.126220703E0,9.163817725E0
1.458892822E0,-8.829498291E-1,-8.135986328E-2,9.178863525E0,9.221591807E0
1.461242676E0,-9.044799805E-1,-5.503845215E-2,9.229110718E0,9.273488982E0
1.463592529E0,-9.284210205E-1,-4.307556152E-2,9.334396362E0,9.380553104E0
1.465911865E0,-9.140625000E-1,-4.547119141E-2,9.403793335E0,9.448222424E0
1.468261719E0,-8.925170898E-1,-4.785156250E-2,9.477966309E0,9.520016905E0
1.470581055E0,-8.949127197E-1,-4.547119141E-2,9.525833130E0,9.567885515E0
1.472930908E0,-9.164581299E-1,-5.024719238E-2,9.607177734E0,9.650921423E0
1.475280762E0,-9.523468018E-1,-3.349304199E-2,9.659820557E0,9.706710019E0
1.477600098E0,-1.000198364E0,-2.871704102E-2,9.688537598E0,9.740070955E0
1.479949951E0,-1.067199707E0,-1.914978027E-2,9.698104858E0,9.756665402E0
1.482269287E0,-1.131805420E0,0.000000000E0,9.702896118E0,9.768683462E0
1.484619141E0,-1.165298462E0,7.171630859E-3,9.736389160E0,9.805878126E0
1.486968994E0,-1.177261353E0,-1.435852051E-2,9.743576050E0,9.814449791E0
1.489288330E0,-1.141372681E0,-3.588867188E-2,9.753143311E0,9.819767005E0
1.491638184E0,-1.162918091E0,-5.503845215E-2,9.765106201E0,9.834261886E0
1.493957520E0,-1.229904175E0,-1.244201660E-1,9.824935913E0,9.902399222E0
1.496307373E0,-1.220336914E0,-2.129669189E-1,9.884750366E0,9.962071416E0
1.498657227E0,-1.124633789E0,-3.302154541E-1,9.937393188E0,1.000627937E1
1.500976563E0,-9.762725830E-1,-4.546356201E-1,9.951751709E0,1.000985333E1
1.503326416E0,-8.303070068E-1,-5.790557861E-1,9.937393188E0,9.988818684E0
1.505645752E0,-6.723785400E-1,-6.676025391E-1,9.879959106E0,9.925289819E0
1.507995606E0,-5.431671143E-1,-7.633056641E-1,9.789031982E0,9.833758854E0
1.510345459E0,-4.355010986E-1,-8.255310059E-1,9.734008789E0,9.778654803E0
1.512664795E0,-3.780670166E-1,-8.590240479E-1,9.635894775E0,9.681493950E0
1.515014649E0,-3.517456055E-1,-8.829498291E-1,9.523437500E0,9.570746428E0
1.517333985E0,-3.206329346E-1,-8.661956787E-1,9.461227417E0,9.506204535E0
1.519683838E0,-2.967071533E-1,-8.518524170E-1,9.427719116E0,9.470774805E0
1.522033692E0,-2.512512207E-1,-8.135528564E-1,9.408584595E0,9.447034429E0
1.524353028E0,-1.842498779E-1,-7.896270752E-1,9.372680664E0,9.407688439E0
1.526702881E0,-1.363983154E-1,-7.633056641E-1,9.324829102E0,9.357012227E0
1.529052735E0,-9.571838379E-2,-7.274169922E-1,9.281753540E0,9.310706003E0
1.531372070E0,-7.896423340E-2,-7.034912109E-1,9.212371826E0,9.239530827E0
1.533721924E0,-6.700134277E-2,-6.628112793E-1,9.147766113E0,9.171991759E0
1.536041260E0,-4.067993164E-2,-6.006011963E-1,9.080764771E0,9.100695878E0
1.538391113E0,-4.307556152E-2,-5.551300049E-1,9.023330688E0,9.040493435E0
1.540740967E0,-7.896423340E-2,-4.761657715E-1,8.975479126E0,8.988447849E0
1.543060303E0,-1.459655762E-1,-4.115600586E-1,8.951553345E0,8.962198107E0
1.545410156E0,-2.177429199E-1,-3.469543457E-1,8.944366455E0,8.953741150E0
1.547729492E0,-2.871398926E-1,-2.895355225E-1,8.953948975E0,8.963229461E0
1.550079346E0,-3.613128662E-1,-2.584228516E-1,8.965911865E0,8.976909542E0
1.552429199E0,-3.684997559E-1,-2.057800293E-1,9.131011963E0,9.140761290E0
1.554748535E0,-3.876342773E-1,-1.627044678E-1,9.288940430E0,9.298448655E0
1.557098389E0,-4.211425781E-1,-1.124572754E-1,9.396621704E0,9.406726697E0
1.559417725E0,-4.594268799E-1,-1.435699463E-1,9.444473267E0,9.456730972E0
1.561767578E0,-5.144500732E-1,-1.651000977E-1,9.477966309E0,9.493353584E0
1.564117432E0,-5.670928955E-1,-2.297058105E-1,9.463607788E0,9.483366042E0
1.566436768E0,-6.077728271E-1,-3.038940430E-1,9.451644897E0,9.476039820E0
1.568786621E0,-6.340942383E-1,-3.828582764E-1,9.454040527E0,9.483013142E0
1.571105957E0,-6.891326904E-1,-4.665985107E-1,9.477966309E0,9.514434475E0
1.573455811E0,-7.298126221E-1,-5.359954834E-1,9.530609131E0,9.573527460E0
1.575805664E0,-7.752685547E-1,-5.623168945E-1,9.619140625E0,9.666700988E0
1.578125000E0,-8.231353760E-1,-6.245269775E-1,9.695724487E0,9.750623525E0
1.580474854E0,-8.446655273E-1,-6.436767578E-1,9.755538940E0,9.813170723E0
1.582794190E0,-8.661956787E-1,-6.484527588E-1,9.872787476E0,9.931904071E0
1.585144043E0,-8.614196777E-1,-6.795654297E-1,1.003071594E1,1.009054584E1
1.587493897E0,-7.992095947E-1,-7.202453613E-1,1.017668152E1,1.023339319E1
1.589813233E0,-6.747741699E-1,-7.776641846E-1,1.030827332E1,1.035956469E1
1.592163086E0,-5.264282227E-1,-8.949127197E-1,1.045184326E1,1.050328630E1
1.594482422E0,-4.307098389E-1,-1.026519775E0,1.054995728E1,1.060852734E1
1.596832276E0,-3.421783447E-1,-1.174880981E0,1.063848877E1,1.070863552E1
1.599182129E0,-2.656097412E-1,-1.359130859E0,1.072224426E1,1.081130460E1
1.601501465E0,-2.201385498E-1,-1.514663696E0,1.072941589E1,1.083803638E1
1.603851319E0,-2.010040283E-1,-1.619934082E0,1.066481018E1,1.078901132E1
1.606170654E0,-1.531372070E-1,-1.698898315E0,1.060977173E1,1.074602078E1
1.608520508E0,-4.785156250E-2,-1.746765137E0,1.050927734E1,1.065356224E1
1.610870362E0,4.785156250E-2,-1.811370850E0,1.037767029E1,1.053467582E1
1.613189697E0,2.656097412E-1,-2.067398071E0,1.030589294E1,1.051456669E1
1.615539551E0,3.445739746E-1,-2.263610840E0,1.015513611E1,1.041006506E1
1.617858887E0,1.914215088E-1,-2.148757935E0,9.899108887E0,1.013144410E1
1.620208740E0,8.375549316E-2,-1.947753906E0,9.681365967E0,9.875707936E0
1.622558594E0,9.571838379E-2,-1.756332397E0,9.499511719E0,9.660982786E0
1.624877930E0,1.842498779E-1,-1.586441040E0,9.343978882E0,9.479487567E0
1.627227783E0,2.344970703E-1,-1.447662354E0,9.195617676E0,9.311825793E0
1.629547119E0,1.411743164E-1,-1.256225586E0,8.997009277E0,9.085384353E0
1.631896973E0,4.547119141E-2,-1.067199707E0,8.829513550E0,8.893890733E0
1.634246826E0,-1.076812744E-1,-9.236297607E-1,8.681167603E0,8.730828033E0
1.636566162E0,-2.249298096E-1,-8.111724854E-1,8.542373657E0,8.583748710E0
1.638916016E0,-3.373870850E-1,-7.489471436E-1,8.516052246E0,8.555576996E0
1.641235352E0,-4.426727295E-1,-6.939239502E-1,8.551940918E0,8.591459891E0
1.643585205E0,-5.383911133E-1,-6.699829102E-1,8.583053589E0,8.625981162E0
1.645935059E0,-5.958099365E-1,-6.556396484E-1,8.652450562E0,8.697686678E0
1.648254395E0,-4.618072510E-1,-6.915283203E-1,8.997009277E0,9.035355737E0
1.650604248E0,-2.033843994E-1,-7.896270752E-1,9.946960449E0,9.980325561E0
1.652923584E0,-4.139556885E-1,-8.159484863E-1,9.999603271E0,1.004137425E1
1.655273438E0,-5.192413330E-1,-8.638153076E-1,9.784255981E0,9.836028343E0
1.657623291E0,-4.713897705E-1,-9.379882812E-1,9.540191650E0,9.597775110E0
1.659942627E0,-4.019927979E-1,-9.595184326E-1,9.071197510E0,9.130657046E0
1.662292481E0,-3.708801270E-1,-9.810638428E-1,8.587844849E0,8.651654031E0
1.664611817E0,-2.943115234E-1,-9.930267334E-1,8.142776489E0,8.208381711E0
1.666961670E0,-1.746826172E-1,-1.050445557E0,7.908279419E0,7.979651199E0
1.669311524E0,-2.392578125E-2,-1.086334229E0,7.702499390E0,7.778765413E0
1.671630860E0,9.332275391E-2,-1.131805420E0,7.561325073E0,7.646131670E0
1.673980713E0,2.488555908E-1,-1.182052612E0,7.503890991E0,7.600497187E0
1.676300049E0,3.302154541E-1,-1.191619873E0,7.520645142E0,7.621620793E0
1.678649903E0,3.661041260E-1,-1.227523804E0,7.532608032E0,7.640748045E0
1.680999756E0,4.091796875E-1,-1.217941284E0,7.597213745E0,7.705093489E0
1.683319092E0,4.713897705E-1,-1.203582764E0,7.750350952E0,7.857401585E0
1.685668945E0,5.742797852E-1,-1.208374023E0,7.968093872E0,8.079633965E0
1.687988281E0,7.369842529E-1,-1.232299805E0,8.243270874E0,8.367390471E0
1.690338135E0,9.355926514E-1,-1.301696777E0,8.501693726E0,8.651505321E0
1.692687988E0,1.131805420E0,-1.423736572E0,8.736190796E0,8.923510462E0
1.695037842E0,1.268188477E0,-1.521835327E0,8.879760742E0,9.098045703E0
1.697387695E0,1.342376709E0,-1.641479492E0,9.028121948E0,9.273802676E0
1.699707031E0,1.318450928E0,-1.710861206E0,9.114257812E0,9.366699226E0
1.702056885E0,1.189239502E0,-1.775466919E0,9.131011963E0,9.377737085E0
1.704406738E0,9.547424316E-1,-1.832901001E0,9.030517578E0,9.263979000E0
1.706726074E0,6.460571289E-1,-1.871185303E0,8.922836304E0,9.139788398E0
1.709075928E0,3.110656738E-1,-1.933395386E0,8.817550659E0,9.032385023E0
1.711395264E0,5.264282227E-2,-1.995620728E0,8.709869385E0,8.935720343E0
1.713806153E0,-1.172485352E-1,-2.031509399E0,8.590240479E0,8.827967441E0
1.716094971E0,-2.967071533E-1,-2.036285400E0,8.477767944E0,8.723935046E0
1.718414307E0,-4.833526611E-1,-1.966903687E0,8.377273560E0,8.618645613E0
1.720764160E0,-7.130584717E-1,-1.832901001E0,8.307876587E0,8.537493300E0
1.723083496E0,-9.930267334E-1,-1.682159424E0,8.293518066E0,8.520457989E0
1.725433350E0,-1.282546997E0,-1.485946655E0,8.367706299E0,8.594851538E0
1.727783203E0,-1.519439697E0,-1.237091064E0,8.501693726E0,8.724556579E0
1.730102539E0,-1.684539795E0,-1.000198364E0,8.697906494E0,8.915808907E0
1.732452393E0,-1.797012329E0,-7.609100342E-1,8.920440674E0,9.131401820E0
1.734771729E0,-1.844863892E0,-5.551300049E-1,9.142974854E0,9.343750921E0
1.737121582E0,-1.859222412E0,-3.684997559E-1,9.351150513E0,9.541305779E0
1.739471436E0,-1.868789673E0,-2.464599609E-1,9.518646240E0,9.703491310E0
1.741790772E0,-1.842468262E0,-1.651000977E-1,9.652648926E0,9.828304972E0
1.744140625E0,-1.777862549E0,-1.603240967E-1,9.748352051E0,9.910442309E0
1.746459961E0,-1.684539795E0,-1.746826172E-1,9.757934570E0,9.903811156E0
1.748809815E0,-1.567306519E0,-2.177429199E-1,9.803390503E0,9.930273262E0
1.751159668E0,-1.387832642E0,-3.445739746E-1,9.899108887E0,1.000185820E1
1.753479004E0,-1.191619873E0,-4.713897705E-1,1.000199890E1,1.008375665E1
1.755828858E0,-9.786682129E-1,-6.125640869E-1,1.011207581E1,1.017777497E1
1.758148194E0,-7.872314453E-1,-7.920227051E-1,1.020300293E1,1.026393210E1
1.760498047E0,-5.862426758E-1,-9.571228027E-1,1.023649597E1,1.029784513E1
1.762847901E0,-4.091796875E-1,-1.136596680E0,1.021734619E1,1.028851025E1
1.765167237E0,-2.297058105E-1,-1.328018188E0,1.018145752E1,1.027027138E1
1.767517090E0,-1.914978027E-2,-1.526626587E0,1.015036011E1,1.026453924E1
1.769836426E0,1.292114258E-1,-1.722839355E0,1.009771729E1,1.024445047E1
1.772186279E0,3.661041260E-1,-1.890335083E0,1.007377625E1,1.025613801E1
1.774536133E0,5.790557861E-1,-2.050643921E0,1.004747009E1,1.027093479E1
1.776855469E0,7.154541016E-1,-2.165512085E0,1.001396179E1,1.027038207E1
1.779205322E0,8.135528564E-1,-2.218139648E0,1.000917053E1,1.028423582E1
1.781524658E0,8.661956787E-1,-2.266006470E0,1.001156616E1,1.030128814E1
1.783874512E0,8.901367188E-1,-2.311462402E0,1.003549194E1,1.033664841E1
1.786224365E0,8.997039795E-1,-2.344970703E0,1.003549194E1,1.034502071E1
1.788543701E0,9.331970215E-1,-2.330612183E0,9.973281860E0,1.028440377E1
1.790893555E0,9.140625000E-1,-2.321044922E0,9.903900146E0,1.021322662E1
1.793212891E0,8.494567871E-1,-2.261215210E0,9.820144653E0,1.011285875E1
1.795562744E0,7.680969238E-1,-2.210968018E0,9.753143311E0,1.003006266E1
1.797882080E0,6.580200195E-1,-2.117645264E0,9.681365967E0,9.932082299E0
1.800231934E0,5.168457031E-1,-2.029113770E0,9.590438843E0,9.816361310E0
1.802581787E0,3.708801270E-1,-1.933395386E0,9.523437500E0,9.724784399E0
1.804901123E0,2.416687012E-1,-1.799407959E0,9.470794678E0,9.643247616E0
1.807250977E0,9.571838379E-2,-1.679763794E0,9.449264526E0,9.597883543E0
1.809570313E0,-4.791259766E-3,-1.526626587E0,9.401397705E0,9.524541485E0
1.811920166E0,-2.010040283E-1,-1.395019531E0,9.308074951E0,9.414177681E0
1.814270020E0,-4.426727295E-1,-1.263412476E0,9.248260498E0,9.344650473E0
1.816589356E0,-7.034912109E-1,-1.150955200E0,9.236297607E0,9.334280436E0
1.818939209E0,-9.236297607E-1,-1.016952515E0,9.236297607E0,9.337905431E0
1.821258545E0,-1.124633789E0,-8.901367188E-1,9.288940430E0,9.399019036E0
1.823608399E0,-1.227523804E0,-7.537384033E-1,9.324829102E0,9.435431842E0
1.825958252E0,-1.277770996E0,-6.245269775E-1,9.353546143E0,9.461054809E0
1.828277588E0,-1.261016846E0,-5.264282227E-1,9.372680664E0,9.471770320E0
1.830627442E0,-1.196411133E0,-4.498443604E-1,9.375076294E0,9.461808234E0
1.832946778E0,-1.134201050E0,-4.067840576E-1,9.346359253E0,9.423710340E0
1.835296631E0,-1.043273926E0,-3.924255371E-1,9.298507690E0,9.365076805E0
1.837646485E0,-9.667053223E-1,-3.828582764E-1,9.224334717E0,9.282750164E0
1.839965820E0,-8.949127197E-1,-3.924255371E-1,9.162124634E0,9.214086736E0
1.842315674E0,-7.992095947E-1,-4.211425781E-1,9.104690552E0,9.149398182E0
1.844635010E0,-6.963043213E-1,-4.737854004E-1,9.090332031E0,9.129263319E0
1.846984863E0,-5.718841553E-1,-5.790557861E-1,9.107086182E0,9.143378796E0
1.849334717E0,-4.450683594E-1,-7.010955811E-1,9.159729004E0,9.197296140E0
1.851654053E0,-3.302154541E-1,-8.470611572E-1,9.219543457E0,9.264261244E0
1.854003906E0,-2.201385498E-1,-1.016952515E0,9.293716431E0,9.351781568E0
1.856323242E0,-1.196441650E-1,-1.179656982E0,9.343978882E0,9.418908996E0
1.858673096E0,-3.588867188E-2,-1.313659668E0,9.384643555E0,9.476208333E0
1.861022949E0,4.785156250E-2,-1.440475464E0,9.408584595E0,9.518336168E0
1.863342285E0,7.177734375E-2,-1.548156738E0,9.454040527E0,9.580230872E0
1.865692139E0,1.435699463E-1,-1.617553711E0,9.494720459E0,9.632590977E0
1.868041992E0,1.890258789E-1,-1.679763794E0,9.542572021E0,9.691130892E0
1.870361328E0,1.794586182E-1,-1.703689575E0,9.588043213E0,9.739883789E0
1.872711182E0,1.651000977E-1,-1.708480835E0,9.662216187E0,9.813490023E0
1.875030518E0,1.124572754E-1,-1.691726685E0,9.750747681E0,9.897053407E0
1.877380371E0,7.656860352E-2,-1.658233643E0,9.803390503E0,9.942940557E0
1.879699707E0,4.785156250E-2,-1.631912231E0,9.920639038E0,1.005407908E1
1.882049561E0,4.547119141E-2,-1.653442383E0,1.000679016E1,1.014257308E1
1.884399414E0,2.871704102E-2,-1.682159424E0,1.007377625E1,1.021329784E1
1.886718750E0,-1.914978027E-2,-1.730010986E0,1.014556885E1,1.029202954E1
1.889068604E0,-5.024719238E-2,-1.794616699E0,1.018624878E1,1.034325085E1
1.891387940E0,-6.939697266E-2,-1.849655151E0,1.017906189E1,1.034598188E1
1.893737793E0,-7.896423340E-2,-1.902297974E0,1.018145752E1,1.035794623E1
1.896087647E0,-1.076812744E-1,-1.942977905E0,1.018385315E1,1.036810606E1
1.898406983E0,-1.124572754E-1,-1.978866577E0,1.019342041E1,1.038433335E1
1.900756836E0,-8.135986328E-2,-2.043472290E0,1.019581604E1,1.039889721E1
1.903076172E0,-3.349304199E-2,-2.117645264E0,1.017189026E1,1.039003824E1
1.905426026E0,-4.067993164E-2,-2.189437866E0,1.012403870E1,1.035815874E1
1.907775879E0,-6.939697266E-2,-2.266006470E0,1.005464172E1,1.030705688E1
1.910095215E0,-1.674957275E-1,-2.318649292E0,9.987640381E0,1.025461602E1
1.912445069E0,-2.727813721E-1,-2.342575073E0,9.937393188E0,1.021341525E1
1.914764404E0,-3.876342773E-1,-2.335388184E0,9.887145996E0,1.016660977E1
1.917114258E0,-5.144500732E-1,-2.306686401E0,9.846466064E0,1.012612241E1
1.919464112E0,-5.982055664E-1,-2.234893799E0,9.834503174E0,1.010297248E1
1.921783447E0,-6.221313477E-1,-2.117645264E0,9.851257324E0,1.009548115E1
1.924133301E0,-6.293182373E-1,-2.021942139E0,9.906280518E0,1.013008811E1
1.926452637E0,-7.082824707E-1,-1.808975220E0,9.970886230E0,1.015837721E1
1.928802490E0,-7.537384033E-1,-1.519439697E0,1.001875305E1,1.016131051E1
1.931152344E0,-7.393798828E-1,-1.234695435E0,1.003311157E1,1.013580205E1
1.933471680E0,-7.226257324E-1,-9.667053223E-1,9.982849121E0,1.005554492E1
1.935821533E0,-7.561340332E-1,-7.058868408E-1,9.820144653E0,9.874474969E0
1.938140869E0,-8.159484863E-1,-4.809570312E-1,9.702896118E0,9.749014549E0
1.940490723E0,-8.709869385E-1,-2.847442627E-1,9.509078979E0,9.553129361E0
1.942840576E0,-9.092712402E-1,-1.316070557E-1,9.250656128E0,9.296167673E0
1.945159912E0,-9.595184326E-1,-2.632141113E-2,8.985046387E0,9.036173250E0
1.947509766E0,-1.000198364E0,4.785156250E-2,8.721832275E0,8.779125513E0
1.949829102E0,-1.071990967E0,5.743408203E-2,8.465805054E0,8.533599388E0
1.952178955E0,-1.076766968E0,1.172485352E-1,8.240875244E0,8.311750665E0
1.954528809E0,-9.858398438E-1,9.332275391E-2,8.061416626E0,8.122008825E0
1.956848145E0,-9.044799805E-1,4.785156250E-2,7.953735352E0,8.005140839E0
1.959197998E0,-8.709869385E-1,1.914978027E-2,7.936996460E0,7.984666415E0
1.961517334E0,-8.614196777E-1,-4.547119141E-2,7.972885132E0,8.019414493E0
1.963867188E0,-8.661956787E-1,-1.507415771E-1,8.051849365E0,8.099709635E0
1.966217041E0,-8.757781982E-1,-2.632141113E-1,8.164306641E0,8.215361954E0
1.968536377E0,-8.542327881E-1,-3.804626465E-1,8.315063477E0,8.367481467E0
1.970886231E0,-8.327026367E-1,-5.144500732E-1,8.516052246E0,8.572117499E0
1.973205567E0,-8.327026367E-1,-6.197357178E-1,8.724227905E0,8.785762265E0
1.975555420E0,-8.255310059E-1,-7.322082520E-1,8.970687866E0,9.038300236E0
1.977905274E0,-8.135528564E-1,-8.159484863E-1,9.217147827E0,9.288888752E0
1.980224610E0,-8.350982666E-1,-8.518524170E-1,9.444473267E0,9.519512432E0
1.982604981E0,-8.494567871E-1,-8.781585693E-1,9.631118774E0,9.708305112E0
1.984924317E0,-8.638153076E-1,-9.068756104E-1,9.755538940E0,9.835605740E0
1.987274170E0,-8.374938965E-1,-9.451599121E-1,9.875183105E0,9.955599663E0
1.989624024E0,-7.992095947E-1,-1.024124146E0,9.980468750E0,1.006465711E1
1.991943360E0,-7.657012939E-1,-1.105484009E0,1.004507446E1,1.013468866E1
1.994293213E0,-7.369842529E-1,-1.227523804E0,1.008096313E1,1.018213034E1
1.996612549E0,-7.154541016E-1,-1.368698120E0,1.011924744E1,1.023642407E1
1.998962403E0,-6.819610596E-1,-1.497909546E0,1.014077759E1,1.027346942E1
2.001312256E0,-6.173553467E-1,-1.610366821E0,1.016232300E1,1.030762910E1
2.003631592E0,-5.599212646E-1,-1.737182617E0,1.019104004E1,1.035319334E1
2.005981445E0,-5.001068115E-1,-1.864013672E0,1.021017456E1,1.039097293E1
2.008300781E0,-4.953155518E-1,-2.009963989E0,1.019821167E1,1.040619114E1
2.010650635E0,-6.269226074E-1,-2.177474976E0,1.013360596E1,1.038385280E1
2.012969971E0,-8.327026367E-1,-2.328216553E0,1.004267883E1,1.034260045E1
2.015319824E0,-1.021728516E0,-2.445465088E0,9.884750366E0,1.023389068E1
2.017669678E0,-1.210769653E0,-2.433502197E0,9.736389160E0,1.010866806E1
2.019989014E0,-1.284942627E0,-2.321044922E0,9.521041870E0,9.883752596E0
2.022338867E0,-1.289733887E0,-2.081756592E0,9.291336060E0,9.608644534E0
2.024658203E0,-1.201202393E0,-1.756332397E0,9.080764771E0,9.326729303E0
2.027008057E0,-1.103088379E0,-1.380661011E0,8.937194824E0,9.110240399E0
2.029357910E0,-1.031311035E0,-1.004989624E0,8.807983398E0,8.924918943E0
2.031677246E0,-9.858398438E-1,-6.604156494E-1,8.719451904E0,8.799822188E0
2.034027100E0,-1.026519775E0,-3.637084961E-1,8.616561890E0,8.685111716E0
2.036346436E0,-1.124633789E0,-1.698913574E-1,8.535202026E0,8.610652581E0
2.038696289E0,-1.205978394E0,-6.221008301E-2,8.427520752E0,8.513598534E0
2.041046143E0,-1.323226929E0,9.567260742E-3,8.370086670E0,8.474041061E0
2.043365479E0,-1.478759766E0,3.828430176E-2,8.283950806E0,8.414988834E0
2.045715332E0,-1.560119629E0,4.785156250E-2,8.226531982E0,8.373296333E0
2.048034668E0,-1.555328369E0,4.785156250E-2,8.224136353E0,8.370051066E0
2.050384522E0,-1.466796875E0,4.785156250E-2,8.216949463E0,8.346977975E0
2.052734375E0,-1.328018188E0,4.547119141E-2,8.221740723E0,8.328428450E0
2.055053711E0,-1.167694092E0,3.828430176E-2,8.255233765E0,8.337497208E0
2.057403565E0,-1.043273926E0,-1.196289062E-2,8.298309326E0,8.363641627E0
2.059722901E0,-9.044799805E-1,-1.220397949E-1,8.362915039E0,8.412569506E0
2.062072754E0,-8.279113770E-1,-2.584228516E-1,8.439483643E0,8.483932094E0
2.064422608E0,-7.130584717E-1,-4.259185791E-1,8.528015137E0,8.568366308E0
2.066741944E0,-7.274169922E-1,-5.886383057E-1,8.592620850E0,8.643423141E0
2.069091797E0,-7.417755127E-1,-7.369842529E-1,8.621337891E0,8.684517472E0
2.071411133E0,-7.513427734E-1,-8.111724854E-1,8.638092041E0,8.708567671E0
2.073760987E0,-8.255310059E-1,-8.590240479E-1,8.657226562E0,8.738821174E0
2.076110840E0,-8.207397461E-1,-8.757781982E-1,8.736190796E0,8.818255542E0
2.078430176E0,-7.704925537E-1,-8.303070068E-1,8.867797852E0,8.939849397E0
2.080780029E0,-7.489471436E-1,-7.513427734E-1,9.016159058E0,9.078356786E0
2.083099365E0,-8.159484863E-1,-6.245269775E-1,9.190826416E0,9.248086077E0
2.085449219E0,-9.164581299E-1,-5.168457031E-1,9.394226074E0,9.452962949E0
2.087799072E0,-9.930267334E-1,-4.402770996E-1,9.585647583E0,9.646998787E0
2.090118408E0,-1.167694092E0,-4.019927979E-1,9.745971680E0,9.823903078E0
2.092468262E0,-1.330413818E0,-3.708801270E-1,9.860824585E0,9.957078612E0
2.094787598E0,-1.421340942E0,-3.708801270E-1,9.982849121E0,1.009034384E1
2.097137451E0,-1.509872437E0,-3.565368652E-1,1.013121033E1,1.024930515E1
2.099487305E0,-1.596008301E0,-3.373870850E-1,1.029393005E1,1.042238305E1
2.101806641E0,-1.643875122E0,-2.895355225E-1,1.045903015E1,1.059138650E1
2.104156494E0,-1.701293945E0,-2.368927002E-1,1.057627869E1,1.071485838E1
2.106475830E0,-1.730010986E0,-1.746826172E-1,1.064328003E1,1.078438046E1
2.108825684E0,-1.732406616E0,-1.292114258E-1,1.067437744E1,1.081481678E1
2.111175537E0,-1.741973877E0,-9.332275391E-2,1.067916870E1,1.082071284E1
2.113494873E0,-1.763504028E0,-7.177734375E-2,1.064805603E1,1.079334034E1
2.115844727E0,-1.811370850E0,-8.375549316E-2,1.048295593E1,1.063862982E1
2.118164063E0,-1.799407959E0,-1.052856445E-1,1.030349731E1,1.045997184E1
2.120513916E0,-1.715652466E0,-1.986083984E-1,1.011445618E1,1.026085437E1
2.122863770E0,-1.698898315E0,-2.751770020E-1,9.858428955E0,1.000752713E1
2.125183106E0,-1.713256836E0,-3.445739746E-1,9.657424927E0,9.814266984E0
2.127532959E0,-1.746765137E0,-3.684997559E-1,9.332015991E0,9.501236918E0
2.129852295E0,-1.808975220E0,-3.278198242E-1,9.008972168E0,9.194641739E0
2.132202149E0,-1.871185303E0,-2.536315918E-1,8.731414795E0,8.933267473E0
2.134552002E0,-1.868789673E0,-1.483612061E-1,8.571090698E0,8.773709686E0
2.136871338E0,-1.849655151E0,-1.914978027E-2,8.472991943E0,8.672553451E0
2.139221192E0,-1.804183960E0,4.785156250E-2,8.384445190E0,8.576496411E0
2.141540528E0,-1.785049438E0,1.387786865E-1,8.348556519E0,8.538387258E0
2.143890381E0,-1.749160767E0,2.177429199E-1,8.350952148E0,8.534950331E0
2.146240235E0,-1.727615356E0,2.703857422E-1,8.358123779E0,8.539086390E0
2.148559570E0,-1.670196533E0,2.488555908E-1,8.391632080E0,8.559846642E0
2.150909424E0,-1.641479492E0,2.081756592E-1,8.444274902E0,8.604857387E0
2.153228760E0,-1.593612671E0,1.268157959E-1,8.494522095E0,8.643644440E0
2.155578613E0,-1.543365479E0,5.024719238E-2,8.518447876E0,8.657277632E0
2.157928467E0,-1.481155396E0,7.171630859E-3,8.530410767E0,8.658047158E0
2.160247803E0,-1.421340942E0,-6.460571289E-2,8.556732178E0,8.674217517E0
2.162597656E0,-1.351943970E0,-1.316070557E-1,8.547164917E0,8.654426673E0
2.164916992E0,-1.296905518E0,-1.818542480E-1,8.547164917E0,8.646910605E0
2.167266846E0,-1.227523804E0,-2.273254395E-1,8.530410767E0,8.621275972E0
2.169616699E0,-1.160522461E0,-2.416687012E-1,8.518447876E0,8.600533144E0
2.171936035E0,-1.086334229E0,-2.368927002E-1,8.499313354E0,8.571730730E0
2.174285889E0,-1.009765625E0,-2.416687012E-1,8.432312012E0,8.495994129E0
2.176605225E0,-9.116668701E-1,-2.249298096E-1,8.362915039E0,8.415466586E0
2.178955078E0,-8.494567871E-1,-2.201385498E-1,8.274383545E0,8.320784871E0
2.181304932E0,-8.159484863E-1,-1.938171387E-1,8.149948120E0,8.192984278E0
2.183624268E0,-7.944183350E-1,-1.818542480E-1,8.044662476E0,8.085837360E0
2.185974121E0,-8.231353760E-1,-1.603240967E-1,7.948959351E0,7.993072652E0
2.188293457E0,-8.877410889E-1,-1.435699463E-1,7.860427856E0,7.911701628E0
2.190643311E0,-9.427795410E-1,-1.411743164E-1,7.798202515E0,7.856253936E0
2.192993164E0,-9.930267334E-1,-1.459655762E-1,7.740783691E0,7.805583912E0
2.195312500E0,-9.882354736E-1,-1.938171387E-1,7.745559692E0,7.810753445E0
2.197662354E0,-9.619140625E-1,-2.225341797E-1,7.745559692E0,7.808232519E0
2.199981690E0,-9.643096924E-1,-2.488555908E-1,7.795822144E0,7.859177131E0
2.202331543E0,-9.355926514E-1,-3.110656738E-1,7.869995117E0,7.931514269E0
2.204681397E0,-8.590240479E-1,-3.661041260E-1,7.989639282E0,8.044022029E0
2.207000733E0,-8.398742676E-1,-4.378814697E-1,8.066207886E0,8.121627831E0
2.209350586E0,-8.422698975E-1,-5.120697021E-1,8.106887817E0,8.166594397E0
2.211669922E0,-7.561340332E-1,-5.886383057E-1,8.164306641E0,8.220348937E0
2.214019776E0,-7.226257324E-1,-6.269226074E-1,8.190628052E0,8.246308737E0
2.216369629E0,-7.728881836E-1,-6.771697998E-1,8.188232422E0,8.252458135E0
2.218688965E0,-7.346038818E-1,-6.819610596E-1,8.240875244E0,8.301610599E0
2.221038819E0,-7.250213623E-1,-6.819610596E-1,8.274383545E0,8.334035632E0
2.223358154E0,-7.537384033E-1,-6.795654297E-1,8.291137695E0,8.353017122E0
2.225708008E0,-8.159484863E-1,-6.963043213E-1,8.240875244E0,8.310393278E0
2.228057862E0,-7.369842529E-1,-6.939239502E-1,8.238494873E0,8.300450229E0
2.230377197E0,-7.226257324E-1,-6.963043213E-1,8.204986572E0,8.266125592E0
2.232727051E0,-7.848510742E-1,-7.393798828E-1,8.111663818E0,8.183016786E0
2.235046387E0,-6.580200195E-1,-7.968139648E-1,8.035095215E0,8.101275082E0
2.237396240E0,-5.718841553E-1,-8.398742676E-1,7.908279419E0,7.973288132E0
2.239715576E0,-6.197357178E-1,-9.188385010E-1,7.731216431E0,7.810252496E0
2.242065430E0,-4.833526611E-1,-9.499511719E-1,7.618743896E0,7.692938033E0
2.244415283E0,-3.661041260E-1,-9.643096924E-1,7.475173950E0,7.546002319E0
2.246734619E0,-3.876342773E-1,-1.026519775E0,7.317245483E0,7.399059714E0
2.249084473E0,-2.560272217E-1,-1.045669556E0,7.204788208E0,7.284775074E0
2.251403809E0,-1.698913574E-1,-1.048049927E0,7.111465454E0,7.190285991E0
2.253753662E0,-2.584228516E-1,-1.095916748E0,7.049255371E0,7.138614514E0
2.256103516E0,-1.555328369E-1,-1.105484009E0,7.046859741E0,7.134740189E0
2.258422852E0,-7.417297363E-2,-1.105484009E0,7.027725220E0,7.114528676E0
2.260772705E0,-8.853149414E-2,-1.115051270E0,7.027725220E0,7.116185700E0
2.263092041E0,-2.344970703E-1,-1.091125488E0,7.063613892E0,7.151236601E0
2.265441895E0,-2.847442627E-1,-1.076766968E0,7.030120850E0,7.117802017E0
2.267791748E0,-2.799530029E-1,-1.028915405E0,7.006179810E0,7.086860809E0
2.270141602E0,-3.349914551E-1,-1.021728516E0,6.984649658E0,7.066928561E0
2.272491455E0,-4.163513184E-1,-1.004989624E0,6.991821289E0,7.075939337E0
2.274810791E0,-4.809570312E-1,-9.403839111E-1,7.001403809E0,7.080628281E0
2.277160645E0,-4.522399902E-1,-8.757781982E-1,6.929611206E0,6.999358537E0
2.279479981E0,-4.331054688E-1,-8.183441162E-1,6.860229492E0,6.922428485E0
2.281829834E0,-3.972015381E-1,-7.609100342E-1,6.778869629E0,6.832995433E0
2.284179688E0,-3.565368652E-1,-7.537384033E-1,6.678375244E0,6.730225555E0
2.286499024E0,-3.206329346E-1,-7.298126221E-1,6.565902710E0,6.614114479E0
2.288848877E0,-2.799530029E-1,-7.633056641E-1,6.436691284E0,6.487835071E0
2.291168213E0,-2.943115234E-1,-7.752685547E-1,6.305084229E0,6.359382653E0
2.293518067E0,-3.062744141E-1,-7.824554443E-1,6.211761475E0,6.268334799E0
2.295867920E0,-3.230285645E-1,-7.680969238E-1,6.142379761E0,6.198640937E0
2.298187256E0,-3.469543457E-1,-7.417755127E-1,6.065811157E0,6.120839258E0
2.300537110E0,-3.565368652E-1,-6.891326904E-1,5.998809814E0,6.048780174E0
2.302856445E0,7.171630859E-3,-5.623168945E-1,5.761917114E0,5.789295342E0
2.305206299E0,4.953155518E-1,-2.679901123E-1,5.312072754E0,5.341841737E0
2.307556153E0,3.948211670E-1,-1.986083984E-1,5.103897095E0,5.122996643E0
2.309875488E0,8.135986328E-2,-2.249298096E-1,5.056030273E0,5.061684993E0
2.312225342E0,-2.225341797E-1,-3.325958252E-1,5.027313232E0,5.043215223E0
2.314575195E0,-5.168457031E-1,-5.288085938E-1,5.087142944E0,5.140602236E0
2.316894531E0,-6.532440186E-1,-7.561340332E-1,5.091934204E0,5.189051971E0
2.319305420E0,-7.130584717E-1,-1.002593994E0,4.984252930E0,5.133850832E0
2.321563721E0,-7.298126221E-1,-1.227523804E0,4.855041504E0,5.060718245E0
2.323913574E0,-7.537384033E-1,-1.361511230E0,4.747360229E0,4.995924695E0
2.326263428E0,-7.968139648E-1,-1.406982422E0,4.675582886E0,4.947280804E0
2.328582764E0,-8.063812256E-1,-1.428512573E0,4.610961914E0,4.894064632E0
2.330932617E0,-8.566284180E-1,-1.390228271E0,4.551147461E0,4.835234235E0
2.333251953E0,-8.207397461E-1,-1.347152710E0,4.496109009E0,4.764811683E0
2.335601807E0,-9.236297607E-1,-1.339981079E0,4.500900269E0,4.786099085E0
2.337951660E0,-9.762725830E-1,-1.330413818E0,4.479370117E0,4.773663764E0
2.340270996E0,-9.451599121E-1,-1.363906860E0,4.484146118E0,4.781331989E0
2.342620850E0,-8.231353760E-1,-1.426116943E0,4.479370117E0,4.772433135E0
2.344940186E0,-6.580200195E-1,-1.457229614E0,4.465011597E0,4.742661389E0
2.347290039E0,-5.670928955E-1,-1.433303833E0,4.469787598E0,4.728102727E0
2.349639893E0,-5.192413330E-1,-1.311264038E0,4.575073242E0,4.787517113E0
2.351959229E0,-4.426727295E-1,-1.177261353E0,4.709075928E0,4.874146031E0
2.354309082E0,-3.900299072E-1,-8.997039795E-1,5.386245728E0,5.474781604E0
2.356658936E0,-3.828582764E-1,-5.838470459E-1,5.922241211E0,5.963254044E0
2.358978272E0,-4.474639893E-1,-7.489471436E-1,5.635101318E0,5.702237518E0
2.361328125E0,-4.235229492E-1,-1.143768311E0,5.319244385E0,5.457283066E0
2.363647461E0,-4.259185791E-1,-1.612762451E0,5.213958740E0,5.474283068E0
2.365997315E0,-5.886383057E-1,-1.966903687E0,5.096710205E0,5.494693811E0
2.368316651E0,-7.010955811E-1,-2.143966675E0,5.051254272E0,5.532024751E0
2.370666504E0,-5.766754150E-1,-2.196609497E0,5.302490234E0,5.768366363E0
2.373016358E0,1.651000977E-1,-2.136795044E0,7.037292480E0,7.356401060E0
2.375335694E0,1.241882324E0,-2.105682373E0,7.886749268E0,8.256935507E0
2.377685547E0,5.374282837E0,-1.859222412E0,9.418151855E0,1.100187295E1
2.380004883E0,5.438888550E0,-1.277770996E0,8.992233276E0,1.058652288E1
2.382354737E0,3.838088989E0,-4.618072510E-1,8.145172119E0,9.015987016E0
2.384704590E0,2.598602295E0,6.700134277E-2,7.549362183E0,7.984365500E0
2.387023926E0,2.093719482E0,4.713897705E-1,7.226318359E0,7.538272124E0
2.389373779E0,1.935791016E0,7.609100342E-1,6.843475342E0,7.152581750E0
2.391693115E0,1.990829468E0,1.021728516E0,6.187835693E0,6.580018366E0
2.394042969E0,1.636688232E0,1.150955200E0,5.615951538E0,5.961741182E0
2.396392822E0,1.799407959E0,1.387832642E0,4.706680298E0,5.226546457E0
2.398712158E0,1.921432495E0,1.392623901E0,4.065399170E0,4.707310758E0
2.401062012E0,1.909469604E0,1.062408447E0,3.962509155E0,4.525070683E0
2.403381348E0,1.890335083E0,6.006011963E-1,4.118041992E0,4.570815942E0
2.405731201E0,1.741973877E0,2.010040283E-1,4.491333008E0,4.821508871E0
2.408081055E0,1.636688232E0,-7.171630859E-3,4.788040161E0,5.060052212E0
2.410400391E0,1.481155396E0,-3.110656738E-1,5.257034302E0,5.470556901E0
2.412750244E0,1.040878296E0,-6.652069092E-1,6.068191528E0,6.192646953E0
2.415069580E0,3.397827148E-1,-1.019348145E0,7.106689453E0,7.187458377E0
2.417419434E0,-2.512512207E-1,-1.320831299E0,7.939392090E0,8.052432505E0
2.419769287E0,-6.604156494E-1,-1.564910889E0,8.295913696E0,8.468015055E0
2.422088623E0,-7.465667725E-1,-1.732406616E0,8.051849365E0,8.269877437E0
2.424438477E0,-6.077728271E-1,-1.875976562E0,7.489532471E0,7.744790023E0
2.426757813E0,-3.756713867E-1,-2.005187988E0,6.836288452E0,7.134195656E0
2.429107666E0,-1.387786865E-1,-2.093719482E0,6.372085571E0,6.708680595E0
2.431457520E0,5.024719238E-2,-2.124832153E0,6.178268433E0,6.533638901E0
2.433776856E0,2.321014404E-1,-2.084152222E0,6.242874146E0,6.585669226E0
2.436126709E0,3.230285645E-1,-2.007583618E0,6.463012695E0,6.775342983E0
2.438446045E0,3.589172363E-1,-1.854431152E0,6.764511108E0,7.023271817E0
2.440795899E0,4.115600586E-1,-1.665405273E0,7.085144043E0,7.289871228E0
2.443145752E0,5.048828125E-1,-1.473983765E0,7.441680908E0,7.603035547E0
2.445465088E0,6.652069092E-1,-1.272979736E0,7.759918213E0,7.891724039E0
2.447814942E0,8.470611572E-1,-1.131805420E0,8.068603516E0,8.191511387E0
2.450164795E0,1.021728516E0,-1.040878296E0,8.276779175E0,8.404310221E0
2.452484131E0,1.191619873E0,-1.016952515E0,8.472991943E0,8.616596939E0
2.454833985E0,1.373474121E0,-1.064804077E0,8.621337891E0,8.794754454E0
2.457153320E0,1.529006958E0,-1.184448242E0,8.750549316E0,8.961746105E0
2.459503174E0,1.624725342E0,-1.323226929E0,8.824737549E0,9.070096733E0
2.461822510E0,1.672576904E0,-1.471588135E0,8.915664673E0,9.189785726E0
2.464172363E0,1.624725342E0,-1.622329712E0,8.977874756E0,9.266818292E0
2.466522217E0,1.497909546E0,-1.789825439E0,9.023330688E0,9.320284589E0
2.468841553E0,1.330413818E0,-1.959716797E0,9.025726318E0,9.331357159E0
2.471191406E0,1.131805420E0,-2.112869263E0,9.049652100E0,9.361698732E0
2.473541260E0,9.092712402E-1,-2.213363647E0,9.042480469E0,9.353726843E0
2.475860596E0,6.891326904E-1,-2.282745361E0,9.016159058E0,9.326143598E0
2.478210449E0,5.790557861E-1,-2.402389526E0,8.977874756E0,9.311767618E0
2.480529785E0,5.048828125E-1,-2.536392212E0,8.903686523E0,9.271667909E0
2.482879639E0,4.355010986E-1,-2.600997925E0,8.803192139E0,9.189724873E0
2.485229492E0,4.043884277E-1,-2.632110596E0,8.664413452E0,9.064413751E0
2.487548828E0,4.115600586E-1,-2.608169556E0,8.547164917E0,8.945722902E0
2.489898682E0,4.618072510E-1,-2.560317993E0,8.463409424E0,8.854252833E0
2.492218018E0,5.192413330E-1,-2.457427979E0,8.403594971E0,8.770916273E0
2.494567871E0,6.077728271E-1,-2.342575073E0,8.372482300E0,8.715245587E0
2.496887207E0,7.346038818E-1,-2.189437866E0,8.372482300E0,8.685144840E0
2.499237061E0,8.685913086E-1,-2.043472290E0,8.398803711E0,8.687354812E0
2.501586914E0,1.033706665E0,-1.897506714E0,8.499313354E0,8.769686921E0
2.503906250E0,1.198806763E0,-1.780258179E0,8.654846191E0,8.916996099E0
2.506256104E0,1.339981079E0,-1.646255493E0,8.853439331E0,9.104344811E0
2.508605957E0,1.447662354E0,-1.548156738E0,8.982650757E0,9.229329889E0
2.510925293E0,1.514663696E0,-1.469192505E0,9.068801880E0,9.311063326E0
2.513275147E0,1.579269409E0,-1.452438354E0,9.147766113E0,9.396025431E0
2.515594483E0,1.634292603E0,-1.471588135E0,9.157333374E0,9.417708770E0
2.517944336E0,1.624725342E0,-1.572082520E0,9.138183594E0,9.413690842E0
2.520287421E0,1.509872437E0,-1.694122314E0,9.102294922E0,9.380913497E0
2.522606757E0,1.320831299E0,-1.782653809E0,9.040084839E0,9.308360963E0
2.524956610E0,1.098312378E0,-1.883148193E0,8.932403564E0,9.194583766E0
2.527275946E0,9.188385010E-1,-1.990829468E0,8.839080811E0,9.106976213E0
2.529625800E0,6.867370605E-1,-2.088928223E0,8.714660645E0,8.987799456E0
2.531945135E0,4.689941406E-1,-2.124832153E0,8.626129150E0,8.896345952E0
2.534294989E0,2.440643311E-1,-2.139190674E0,8.571090698E0,8.837380828E0
2.536644843E0,7.417297363E-2,-2.165512085E0,8.532806396E0,8.803620234E0
2.538964178E0,4.785156250E-2,-2.206176758E0,8.539978027E0,8.820472230E0
2.541314032E0,4.785156250E-2,-2.321044922E0,8.542373657E0,8.852213678E0
2.543633368E0,4.785156250E-2,-2.431106567E0,8.556732178E0,8.895517662E0
2.545983221E0,6.221008301E-2,-2.553146362E0,8.511276245E0,8.886183082E0
2.548333075E0,6.221008301E-2,-2.627319336E0,8.458633423E0,8.857491539E0
2.550652411E0,4.785156250E-2,-2.615356445E0,8.437088013E0,8.833279869E0
2.553002264E0,7.171630859E-3,-2.620147705E0,8.449050903E0,8.845998338E0
2.555352118E0,-3.111267090E-2,-2.634490967E0,8.537597656E0,8.934880211E0
2.557701971E0,-8.135986328E-2,-2.610565186E0,8.633300781E0,9.019731282E0
2.560051825E0,-1.459655762E-1,-2.584243774E0,8.729019165E0,9.104690957E0
2.562371161E0,-2.703857422E-1,-2.572280884E0,8.843872070E0,9.214326377E0
2.564721014E0,-4.115600586E-1,-2.488540649E0,8.961120605E0,9.309344700E0
2.567040350E0,-5.264282227E-1,-2.435897827E0,9.075973511E0,9.411908418E0
2.569390204E0,-6.723785400E-1,-2.385650635E0,9.205184937E0,9.533039996E0
2.571740057E0,-7.561340332E-1,-2.335388184E0,9.348754883E0,9.665660583E0
2.574059393E0,-8.159484863E-1,-2.266006470E0,9.456436157E0,9.758316558E0
2.576409247E0,-8.518524170E-1,-2.141571045E0,9.566513062E0,9.840231259E0
2.578728583E0,-8.159484863E-1,-2.053039551E0,9.628723145E0,9.878919613E0
2.581078436E0,-6.819610596E-1,-2.029113770E0,9.650253296E0,9.884824847E0
2.583428290E0,-5.096740723E-1,-2.079360962E0,9.578475952E0,9.814820999E0
2.585747626E0,-3.708801270E-1,-2.120040894E0,9.413360596E0,9.656266523E0
2.588097479E0,-2.679901123E-1,-2.129608154E0,9.186050415E0,9.433481426E0
2.590416815E0,-1.962127686E-1,-2.134399414E0,8.934799194E0,9.188296738E0
2.592766669E0,-1.818542480E-1,-2.153533936E0,8.657226562E0,8.922911584E0
2.595116522E0,-2.464599609E-1,-2.220535278E0,8.391632080E0,8.683951198E0
2.597435858E0,-3.995971680E-1,-2.354537964E0,8.173889160E0,8.515632150E0
2.599785712E0,-6.556396484E-1,-2.462219238E0,8.003997803E0,8.399783792E0
2.602105048E0,-9.690856934E-1,-2.550750732E0,7.898712158E0,8.356740402E0
2.604454901E0,-1.239486694E0,-2.577072144E0,7.812561035E0,8.319479432E0
2.606804755E0,-1.430908203E0,-2.543563843E0,7.774276733E0,8.304010720E0
2.609124091E0,-1.473983765E0,-2.507675171E0,7.769500732E0,8.296156009E0
2.611473944E0,-1.371093750E0,-2.466995239E0,7.774276733E0,8.270752221E0
2.613793280E0,-1.196411133E0,-2.409576416E0,7.779067993E0,8.231121245E0
2.616143134E0,-1.024124146E0,-2.373687744E0,7.826919556E0,8.242808593E0
2.618492987E0,-8.829498291E-1,-2.342575073E0,7.889129639E0,8.276812480E0
2.620812323E0,-7.752685547E-1,-2.342575073E0,8.023132324E0,8.394006886E0
2.623162176E0,-7.058868408E-1,-2.361709595E0,8.126022339E0,8.491653990E0
2.625481512E0,-6.364898682E-1,-2.402389526E0,8.185852051E0,8.554809676E0
2.627831366E0,-5.790557861E-1,-2.426315308E0,8.157135010E0,8.530015425E0
2.630150702E0,-5.335998535E-1,-2.426315308E0,8.118850708E0,8.490434123E0
2.632500555E0,-5.072784424E-1,-2.411972046E0,8.049453735E0,8.418351739E0
2.634850409E0,-5.192413330E-1,-2.402389526E0,7.965713501E0,8.336286858E0
2.637169745E0,-4.929199219E-1,-2.397613525E0,7.860427856E0,8.232730213E0
2.639519598E0,-4.426727295E-1,-2.445465088E0,7.747955322E0,8.136772721E0
2.641838934E0,-3.637084961E-1,-2.478958130E0,7.649856567E0,8.049709484E0
2.644188788E0,-3.158569336E-1,-2.476577759E0,7.578063965E0,7.978737773E0
2.646538641E0,-2.919311523E-1,-2.457427979E0,7.499099731E0,7.896877411E0
2.648857977E0,-3.062744141E-1,-2.388031006E0,7.424926758E0,7.805513017E0
2.651207831E0,-2.727813721E-1,-2.325820923E0,7.372283936E0,7.735271364E0
2.653557684E0,-2.010040283E-1,-2.275573730E0,7.338790894E0,7.686123223E0
2.655877020E0,-9.092712402E-2,-2.277969360E0,7.369888306E0,7.714445268E0
2.658226874E0,2.153015137E-2,-2.244461060E0,7.434494019E0,7.765936538E0
2.660546210E0,7.896423340E-2,-2.199005127E0,7.525421143E0,7.840524362E0
2.662896063E0,1.890258789E-1,-2.124832153E0,7.609176636E0,7.902544624E0
2.665215399E0,3.589172363E-1,-2.053039551E0,7.690536499E0,7.967944818E0
2.667565253E0,5.982055664E-1,-1.986038208E0,7.728820801E0,8.002303958E0
2.669915106E0,8.685913086E-1,-1.923828125E0,7.738388062E0,8.021110603E0
2.672234442E0,1.103088379E0,-1.832901001E0,7.733596802E0,8.024017045E0
2.674584296E0,1.258621216E0,-1.708480835E0,7.767105103E0,8.051767247E0
2.676934149E0,1.320831299E0,-1.600799561E0,7.819747925E0,8.090464273E0
2.679253485E0,1.328018188E0,-1.512268066E0,7.932205200E0,8.183548518E0
2.681603339E0,1.294509888E0,-1.378265381E0,8.102096558E0,8.319816100E0
2.683922675E0,1.225128174E0,-1.237091064E0,8.334197998E0,8.514117078E0
2.686272528E0,1.237091064E0,-1.141372681E0,8.568695068E0,8.732448744E0
2.688622382E0,1.335189819E0,-1.191619873E0,8.810379028E0,8.990298571E0
2.690941718E0,1.462020874E0,-1.363906860E0,9.011367798E0,9.230519842E0
2.693291571E0,1.531402588E0,-1.557723999E0,9.095123291E0,9.353767456E0
2.695610907E0,1.478759766E0,-1.753936768E0,9.126220703E0,9.410150315E0
2.697960760E0,1.304092407E0,-1.849655151E0,9.085556030E0,9.363183730E0
2.700310614E0,1.093521118E0,-1.902297974E0,9.049652100E0,9.311859596E0
2.702629950E0,8.853454590E-1,-1.928619385E0,9.059234619E0,9.304468883E0
2.704979803E0,7.800598145E-1,-1.945358276E0,9.116653442E0,9.354479255E0
2.707299139E0,7.369842529E-1,-1.971679688E0,9.200408936E0,9.438124345E0
2.709648993E0,7.178497314E-1,-1.962112427E0,9.250656128E0,9.483661329E0
2.711998846E0,6.963043213E-1,-1.926223755E0,9.336791992E0,9.558810719E0
2.714318182E0,6.891326904E-1,-1.873580933E0,9.387039185E0,9.596963792E0
2.716668036E0,7.513427734E-1,-1.868789673E0,9.432510376E0,9.645161626E0
2.718987372E0,9.068756104E-1,-1.911865234E0,9.530609131E0,9.762692377E0
2.721337225E0,1.136596680E0,-1.974075317E0,9.645462036E0,9.910790244E0
2.723656561E0,1.299301147E0,-2.041076660E0,9.741180420E0,1.003716959E1
2.726006415E0,1.371093750E0,-2.053039551E0,9.755538940E0,1.006307157E1
2.728356268E0,1.351943970E0,-2.045867920E0,9.753143311E0,1.005669590E1
2.730675604E0,1.275375366E0,-1.990829468E0,9.729217529E0,1.001237524E1
2.733025458E0,1.215560913E0,-1.959716797E0,9.669403076E0,9.940595259E0
2.735375311E0,1.158126831E0,-1.931015015E0,9.600006104E0,9.860537203E0
2.737694647E0,1.079162598E0,-1.923828125E0,9.523437500E0,9.775559748E0
2.740044501E0,1.021728516E0,-1.909469604E0,9.466003418E0,9.710572797E0
2.742363837E0,9.499511719E-1,-1.914260864E0,9.425323486E0,9.664549897E0
2.744713690E0,9.020996094E-1,-1.897506714E0,9.377471924E0,9.609958123E0
2.747063544E0,9.020996094E-1,-1.856826782E0,9.351150513E0,9.576304366E0
2.749382880E0,1.002593994E0,-1.801788330E0,9.329620361E0,9.554760698E0
2.751732733E0,1.115051270E0,-1.770690918E0,9.288940430E0,9.521717280E0
2.754052069E0,1.203582764E0,-1.701293945E0,9.322433472E0,9.552527330E0
2.756401923E0,1.325622559E0,-1.694122314E0,9.363113403E0,9.607040033E0
2.758751776E0,1.399795532E0,-1.689331055E0,9.410964966E0,9.663308364E0
2.761071112E0,1.430908203E0,-1.663009644E0,9.475585938E0,9.726244302E0
2.763420966E0,1.390228271E0,-1.624725342E0,9.530609131E0,9.767547158E0
2.765740301E0,1.308868408E0,-1.591232300E0,9.578475952E0,9.797569000E0
2.768090155E0,1.208374023E0,-1.612762451E0,9.650253296E0,9.858425796E0
2.770440009E0,1.122238159E0,-1.643875122E0,9.686141968E0,9.888533264E0
2.772759344E0,1.026519775E0,-1.670196533E0,9.717254639E0,9.913038738E0
2.775109198E0,9.523468018E-1,-1.746765137E0,9.745971680E0,9.946965208E0
2.777428534E0,8.805541992E-1,-1.847259521E0,9.750747681E0,9.963173378E0
2.779778387E0,7.992095947E-1,-1.976470947E0,9.738784790E0,9.969408336E0
2.782128241E0,7.561340332E-1,-2.086547852E0,9.698104858E0,9.948801860E0
2.784447577E0,7.298126221E-1,-2.115249634E0,9.638290405E0,9.894622247E0
2.786797430E0,6.699829102E-1,-2.122436523E0,9.602401733E0,9.856963678E0
2.789116766E0,6.053771973E-1,-2.093719482E0,9.626327515E0,9.869970833E0
2.791466620E0,6.029968262E-1,-2.100891113E0,9.700500488E0,9.943694402E0
2.793816473E0,6.364898682E-1,-2.129608154E0,9.753143311E0,1.000320722E1
2.796135809E0,6.699829102E-1,-2.191818237E0,9.789031982E0,1.005376006E1
2.798485663E0,6.676025391E-1,-2.246856689E0,9.800994873E0,1.007737856E1
2.800835516E0,6.628112793E-1,-2.297103882E0,9.777069092E0,1.006514208E1
2.803154852E0,6.604156494E-1,-2.306686401E0,9.753143311E0,1.004394123E1
2.805504706E0,6.604156494E-1,-2.304290771E0,9.748352051E0,1.003873859E1
2.807824042E0,6.819610596E-1,-2.277969360E0,9.734008789E0,1.002023664E1
2.810173895E0,6.771697998E-1,-2.239685059E0,9.719650269E0,9.997317112E0
2.812523749E0,6.795654297E-1,-2.182250977E0,9.705291748E0,9.970793169E0
2.814843085E0,6.891326904E-1,-2.163116455E0,9.710067749E0,9.971930222E0
2.817192938E0,7.250213623E-1,-2.175079346E0,9.734008789E0,1.000037765E1
2.819512274E0,7.848510742E-1,-2.227722168E0,9.750747681E0,1.003273729E1
2.821862128E0,8.303070068E-1,-2.306686401E0,9.769897461E0,1.007279049E1
2.824211981E0,8.638153076E-1,-2.395217896E0,9.822540283E0,1.014719386E1
2.826531317E0,8.661956787E-1,-2.488540649E0,9.894317627E0,1.023917237E1
2.828881171E0,8.350982666E-1,-2.526824951E0,9.934997559E0,1.028525206E1
2.831200507E0,7.680969238E-1,-2.550750732E0,9.958923340E0,1.030904730E1
2.833550360E0,7.154541016E-1,-2.545959473E0,9.944564819E0,1.029019697E1
2.835900214E0,6.460571289E-1,-2.531600952E0,9.942184448E0,1.027975801E1
2.838219550E0,5.886383057E-1,-2.510070801E0,9.958923340E0,1.028723017E1
2.840599921E0,5.335998535E-1,-2.495712280E0,9.970886230E0,1.029232145E1
2.842919257E0,4.594268799E-1,-2.476577759E0,1.000917053E1,1.032124049E1
2.845269110E0,4.235229492E-1,-2.459823608E0,1.005224609E1,1.035749755E1
2.847618964E0,4.259185791E-1,-2.452636719E0,1.010728455E1,1.040932440E1
2.849938300E0,4.642028809E-1,-2.409576416E0,1.017189026E1,1.046369410E1
2.852288153E0,5.455627441E-1,-2.380859375E0,1.022692871E1,1.051457089E1
2.854607489E0,6.293182373E-1,-2.323425293E0,1.029153442E1,1.056929644E1
2.856957343E0,7.561340332E-1,-2.261215210E0,1.037767029E1,1.064804553E1
2.859307196E0,8.781585693E-1,-2.170288086E0,1.044227600E1,1.070151582E1
2.861626532E0,9.978027344E-1,-2.055435181E0,1.050448608E1,1.075010009E1
2.863976385E0,1.095916748E0,-1.931015015E0,1.053320312E1,1.076467466E1
2.866295721E0,1.158126831E0,-1.792221069E0,1.055712891E1,1.077062138E1
2.868645575E0,1.232299805E0,-1.663009644E0,1.063848877E1,1.083797062E1
2.870995428E0,1.280166626E0,-1.596008301E0,1.074856567E1,1.094155990E1
2.873314764E0,1.335189819E0,-1.567306519E0,1.091366577E1,1.110618216E1
2.875664618E0,1.342376709E0,-1.524230957E0,1.109552002E1,1.127988563E1
2.877983954E0,1.313659668E0,-1.505081177E0,1.131086731E1,1.148593446E1
2.880333807E0,1.270584106E0,-1.440475464E0,1.155732727E1,1.171585111E1
2.882683661E0,1.258621216E0,-1.402191162E0,1.180140686E1,1.195087743E1
2.885002997E0,1.263412476E0,-1.359130859E0,1.201435852E1,1.215681942E1
2.887352850E0,1.275375366E0,-1.342376709E0,1.220579529E1,1.234544435E1
2.889672186E0,1.270584106E0,-1.311264038E0,1.241874695E1,1.255225371E1
2.892022040E0,1.261016846E0,-1.275375366E0,1.259103394E1,1.271813199E1
2.894371893E0,1.301696777E0,-1.239486694E0,1.279681396E1,1.292242970E1
2.896691229E0,1.397415161E0,-1.203582764E0,1.298585510E1,1.311616611E1
2.899041083E0,1.550552368E0,-1.198806763E0,1.308874512E1,1.323467412E1
2.901360419E0,1.739578247E0,-1.265808105E0,1.311267090E1,1.328798483E1
2.903710272E0,1.928619385E0,-1.363906860E0,1.304806519E1,1.326015911E1
2.906060126E0,2.053039551E0,-1.464401245E0,1.287817383E1,1.312275899E1
2.908379462E0,2.076965332E0,-1.509872437E0,1.269152832E1,1.294868298E1
2.910729315E0,2.021942139E0,-1.488342285E0,1.254318237E1,1.279198330E1
2.913048651E0,1.919036865E0,-1.450057983E0,1.246661377E1,1.269652825E1
2.915398505E0,1.830505371E0,-1.421340942E0,1.248814392E1,1.270136601E1
2.917748358E0,1.777862549E0,-1.392623901E0,1.255514526E1,1.275664020E1
2.920067694E0,1.749160767E0,-1.375869751E0,1.267239380E1,1.286631826E1
2.922417548E0,1.713256836E0,-1.320831299E0,1.279920959E1,1.298073998E1
2.924828436E0,1.780258179E0,-1.284942627E0,1.290209961E1,1.308757315E1
2.927086737E0,1.890335083E0,-1.265808105E0,1.299063110E1,1.318833323E1
2.929436591E0,2.000396729E0,-1.244262695E0,1.306002808E1,1.327079915E1
2.931755926E0,2.115249634E0,-1.220336914E0,1.312702942E1,1.335224343E1
2.934105780E0,2.184646606E0,-1.196411133E0,1.320359802E1,1.343648321E1
2.936425116E0,2.215759277E0,-1.179656982E0,1.327059937E1,1.350592416E1
2.938774969E0,2.210968018E0,-1.167694092E0,1.333280945E1,1.356523855E1
2.941124823E0,2.196609497E0,-1.205978394E0,1.340698242E1,1.363915888E1
2.943444159E0,2.187042236E0,-1.258621216E0,1.347398376E1,1.370822817E1
2.945794012E0,2.210968018E0,-1.318450928E0,1.355055237E1,1.379290259E1
2.948113348E0,2.263610840E0,-1.356735229E0,1.358644104E1,1.384037733E1
2.950463202E0,2.280364990E0,-1.378265381E0,1.365583801E1,1.391336019E1
2.952813055E0,2.277969360E0,-1.354339600E0,1.372283936E1,1.397639797E1
2.955132391E0,2.258819580E0,-1.292129517E0,1.383290100E1,1.407554669E1
2.957482245E0,2.232498169E0,-1.220336914E0,1.390708923E1,1.413790654E1
2.959801581E0,2.203796387E0,-1.177261353E0,1.397169495E1,1.419334078E1
2.962151434E0,2.220535278E0,-1.129409790E0,1.404586792E1,1.426508847E1
2.964501288E0,2.237289429E0,-1.057632446E0,1.407698059E1,1.429284552E1
2.966820624E0,2.256439209E0,-1.004989624E0,1.413679504E1,1.435097544E1
2.969170477E0,2.282745361E0,-9.667053223E-1,1.419662476E1,1.441143990E1
2.971489813E0,2.330612183E0,-9.499511719E-1,1.424447632E1,1.446510511E1
2.973839667E0,2.404785156E0,-9.451599121E-1,1.429951477E1,1.453108535E1
2.976189520E0,2.452636719E0,-9.595184326E-1,1.434736633E1,1.458708412E1
2.978508856E0,2.476577759E0,-9.140625000E-1,1.438565063E1,1.462586380E1
2.980858710E0,2.490921021E0,-8.757781982E-1,1.441197205E1,1.465184675E1
2.983178046E0,2.522033691E0,-8.207397461E-1,1.444068909E1,1.468222629E1
2.985527899E0,2.600997925E0,-8.231353760E-1,1.445504761E1,1.471023941E1
2.987877753E0,2.687133789E0,-8.614196777E-1,1.449333191E1,1.476548007E1
2.990197089E0,2.766098022E0,-8.973083496E-1,1.456271362E1,1.485022184E1
2.992546942E0,2.825927734E0,-8.925170898E-1,1.469192505E1,1.498783226E1
2.994866278E0,2.904891968E0,-8.685913086E-1,1.483789062E1,1.514449888E1
2.997216132E0,2.967102051E0,-8.015899658E-1,1.501496887E1,1.532630194E1
2.999565985E0,3.019744873E0,-7.178497314E-1,1.515614319E1,1.547070922E1
3.001885321E0,3.055633545E0,-5.958099365E-1,1.531645203E1,1.562963814E1
3.004235175E0,3.079559326E0,-5.192413330E-1,1.547198486E1,1.578403031E1
3.006554510E0,3.098709106E0,-4.785614014E-1,1.562034607E1,1.593192488E1
3.008904364E0,3.180068970E0,-5.264282227E-1,1.571606445E1,1.604321187E1
3.011254218E0,3.266204834E0,-5.958099365E-1,1.574955750E1,1.609570268E1
3.013573553E0,3.340377808E0,-6.723785400E-1,1.573519897E1,1.609989763E1
3.015923407E0,3.337982178E0,-7.800598145E-1,1.565145874E1,1.602244610E1
3.018242743E0,3.249450684E0,-8.661956787E-1,1.552702332E1,1.588702860E1
3.020592596E0,3.141769409E0,-9.810638428E-1,1.540737915E1,1.575501614E1
3.022942450E0,2.957534790E0,-1.112655640E0,1.532124329E1,1.564370514E1
3.025261786E0,2.787643433E0,-1.198806763E0,1.526620483E1,1.556486761E1
3.027611639E0,2.663208008E0,-1.268188477E0,1.522792053E1,1.551098136E1
3.029930975E0,2.555541992E0,-1.337585449E0,1.521356201E1,1.548458585E1
3.032280829E0,2.483749390E0,-1.409378052E0,1.526620483E1,1.553101309E1
3.034630682E0,2.488540649E0,-1.488342285E0,1.529252625E1,1.556500422E1
3.036950018E0,2.531600952E0,-1.576873779E0,1.531884766E1,1.560649313E1
3.039299872E0,2.603393555E0,-1.660614014E0,1.532124329E1,1.562932477E1
3.041619208E0,2.672790527E0,-1.684539795E0,1.530448914E1,1.562718373E1
3.043969061E0,2.718246460E0,-1.696517944E0,1.525663757E1,1.558948450E1
3.046318915E0,2.751739502E0,-1.660614014E0,1.521118164E1,1.554701759E1
3.048638251E0,2.758926392E0,-1.629516602E0,1.517050171E1,1.550519659E1
3.050988104E0,2.806777954E0,-1.627120972E0,1.513699341E1,1.548076531E1
3.053307440E0,2.928817749E0,-1.691726685E0,1.507478333E1,1.544956326E1
3.055657294E0,3.089126587E0,-1.797012329E0,1.495993042E1,1.538088016E1
3.058007147E0,3.235092163E0,-1.883148193E0,1.477807617E1,1.524478940E1
3.060326483E0,3.335601807E0,-1.940582275E0,1.454357910E1,1.504685323E1
3.062676337E0,3.385848999E0,-1.933395386E0,1.420619202E1,1.473152683E1
3.065026190E0,3.385848999E0,-1.919036865E0,1.385205078E1,1.438839764E1
3.067345526E0,3.328414917E0,-1.914260864E0,1.356970215E1,1.410246634E1
3.069695380E0,3.244674683E0,-1.940582275E0,1.334956360E1,1.387460348E1
3.072014716E0,3.158523560E0,-1.983642578E0,1.313899231E1,1.365811948E1
3.074364569E0,3.074783325E0,-2.036285400E0,1.295713806E1,1.347175480E1
3.076683905E0,3.010177612E0,-2.053039551E0,1.280877686E1,1.331694053E1
3.079033759E0,2.943176270E0,-2.045867920E0,1.271067810E1,1.320640753E1
3.081383612E0,2.873779297E0,-1.986038208E0,1.267478943E1,1.314736636E1
3.083702948E0,2.830703735E0,-1.952545166E0,1.267956543E1,1.313760617E1
3.086052801E0,2.849853516E0,-1.950149536E0,1.273939514E1,1.319912637E1
3.088402655E0,2.871383667E0,-1.978866577E0,1.284228516E1,1.330733050E1
3.090721991E0,2.852249146E0,-1.998001099E0,1.292842102E1,1.338922715E1
3.093071844E0,2.837890625E0,-2.043472290E0,1.306242371E1,1.352243748E1
3.095391180E0,2.770889282E0,-2.091323853E0,1.320837402E1,1.365696186E1
3.097741034E0,2.703887939E0,-2.148757935E0,1.329452515E1,1.373581339E1
3.100090887E0,2.600997925E0,-2.196609497E0,1.335673523E1,1.378378248E1
3.102410223E0,2.462219238E0,-2.215759277E0,1.337826538E1,1.378223847E1
3.104760077E0,2.340179443E0,-2.210968018E0,1.337109375E1,1.375321662E1
3.107079413E0,2.297103882E0,-2.258819580E0,1.337826538E1,1.376070263E1
3.109429266E0,2.268402100E0,-2.344970703E0,1.338305664E1,1.377500420E1
3.111779120E0,2.218139648E0,-2.452636719E0,1.339022827E1,1.379252637E1
3.114098456E0,2.139190674E0,-2.574676514E0,1.339022827E1,1.380229362E1
3.116448309E0,2.074584961E0,-2.713455200E0,1.336152649E1,1.379119763E1
3.118767645E0,2.007583618E0,-2.811569214E0,1.329212952E1,1.373375479E1
3.121117499E0,1.935791016E0,-2.897705078E0,1.319403076E1,1.364648047E1
3.123467352E0,1.895111084E0,-2.928817749E0,1.303370667E1,1.349247675E1
3.125817206E0,1.856826782E0,-2.933593750E0,1.286621094E1,1.332640844E1
3.128167059E0,1.830505371E0,-2.943176270E0,1.271307373E1,1.317707404E1
3.130486395E0,1.794616699E0,-2.933593750E0,1.258624268E1,1.304760998E1
3.132836249E0,1.768295288E0,-2.883346558E0,1.250967407E1,1.295887730E1
3.135155585E0,1.715652466E0,-2.761322021E0,1.247138977E1,1.288813119E1
3.137505438E0,1.677368164E0,-2.648849487E0,1.250250244E1,1.288962897E1
3.139855292E0,1.682159424E0,-2.502899170E0,1.251206970E1,1.287035558E1
3.142174628E0,1.691726685E0,-2.342575073E0,1.251446533E1,1.284373153E1
3.144524481E0,1.739578247E0,-2.182250977E0,1.248095703E1,1.278916104E1
3.146843817E0,1.797012329E0,-2.048263550E0,1.244267273E1,1.273753279E1
3.149193671E0,1.859222412E0,-1.907073975E0,1.237568665E1,1.265903863E1
3.151543524E0,1.923828125E0,-1.773086548E0,1.228713989E1,1.256259357E1
3.153862860E0,2.002792358E0,-1.686935425E0,1.222013855E1,1.249754834E1
3.156212714E0,2.098510742E0,-1.596008301E0,1.220339966E1,1.248494906E1
3.158532050E0,2.210968018E0,-1.481155396E0,1.213160706E1,1.242006806E1
3.160881903E0,2.325820923E0,-1.359130859E0,1.197846985E1,1.227763901E1
3.163231757E0,2.433502197E0,-1.241882324E0,1.178944397E1,1.210186737E1
3.165551093E0,2.557922363E0,-1.112655640E0,1.155972290E1,1.189151643E1
3.167900946E0,2.703887939E0,-1.026519775E0,1.132522583E1,1.168869081E1
3.170220282E0,2.885742188E0,-9.762725830E-1,1.108833313E1,1.149920640E1
3.172570135E0,3.129806519E0,-9.643096924E-1,1.080358887E1,1.128907057E1
3.174919989E0,3.349945068E0,-9.379882812E-1,1.047099304E1,1.103375046E1
3.177239325E0,3.503097534E0,-8.925170898E-1,1.009771729E1,1.072530529E1
3.179589178E0,3.534194946E0,-8.566284180E-1,9.738784790E0,1.039558923E1
3.181939032E0,3.479156494E0,-8.566284180E-1,9.415756226E0,1.007446313E1
3.184258368E0,3.381057739E0,-8.398742676E-1,9.181259155E0,9.820003050E0
3.186608221E0,3.244674683E0,-8.207397461E-1,9.083160400E0,9.680151362E0
3.188927557E0,3.055633545E0,-7.920227051E-1,9.025726318E0,9.561795433E0
3.191277411E0,2.871383667E0,-7.776641846E-1,9.047256470E0,9.523783669E0
3.193627264E0,2.744567871E0,-7.585296631E-1,9.116653442E0,9.550988956E0
3.195946600E0,2.593826294E0,-7.537384033E-1,9.195617676E0,9.584124418E0
3.198296454E0,2.464614868E0,-7.561340332E-1,9.276977539E0,9.628518961E0
3.200615790E0,2.333007812E0,-7.657012939E-1,9.339187622E0,9.656585803E0
3.202965643E0,2.268402100E0,-7.896270752E-1,9.410964966E0,9.712642307E0
3.205315497E0,2.292327881E0,-8.757781982E-1,9.525833130E0,9.836831369E0
3.207634833E0,2.340179443E0,-9.643096924E-1,9.683746338E0,1.000905970E1
3.209984686E0,2.376068115E0,-1.043273926E0,9.822540283E0,1.015954811E1
3.212304022E0,2.263610840E0,-1.004989624E0,9.954147339E0,1.025763069E1
3.214653876E0,2.120040894E0,-8.877410889E-1,1.004507446E1,1.030466781E1
3.217003729E0,2.017150879E0,-7.369842529E-1,1.007856750E1,1.030483219E1
3.219323065E0,2.093719482E0,-6.580200195E-1,1.009532166E1,1.033112632E1
3.221672919E0,2.323425293E0,-6.867370605E-1,1.007617188E1,1.036335624E1
3.223992255E0,2.545959473E0,-7.322082520E-1,9.994827271E0,1.033995216E1
3.226342108E0,2.667999268E0,-7.154541016E-1,9.918243408E0,1.029571012E1
3.228661444E0,2.670394897E0,-6.628112793E-1,9.853637695E0,1.023056712E1
3.231011298E0,2.656036377E0,-6.245269775E-1,9.810577393E0,1.018292649E1
3.233361151E0,2.689529419E0,-6.125640869E-1,9.774673462E0,1.015642873E1
3.235680487E0,2.763717651E0,-6.867370605E-1,9.824935913E0,1.022932592E1
3.238030341E0,2.835494995E0,-7.609100342E-1,9.882354736E0,1.030921680E1
3.240349676E0,2.840286255E0,-7.896270752E-1,9.939788818E0,1.036774511E1
3.242699530E0,2.713455200E0,-7.728881836E-1,9.994827271E0,1.038541128E1
3.245049384E0,2.560317993E0,-7.154541016E-1,1.002832031E1,1.037469571E1
3.247368719E0,2.380859375E0,-6.891326904E-1,1.001875305E1,1.032079493E1
3.249718573E0,2.208572388E0,-7.034912109E-1,9.958923340E0,1.022510860E1
3.252037909E0,2.043472290E0,-7.704925537E-1,9.848861694E0,1.008808775E1
3.254387762E0,1.885543823E0,-8.709869385E-1,9.750747681E0,9.969502199E0
3.256737616E0,1.763504028E0,-9.930267334E-1,9.580856323E0,9.792285557E0
3.259056952E0,1.651046753E0,-1.136596680E0,9.406188965E0,9.617390407E0
3.261406805E0,1.533798218E0,-1.253845215E0,9.226730347E0,9.437013176E0
3.263726141E0,1.375869751E0,-1.368698120E0,9.073577881E0,9.278802060E0
3.266075995E0,1.184448242E0,-1.414154053E0,8.956329346E0,9.144319804E0
3.268425848E0,1.007385254E0,-1.423736572E0,8.865402222E0,9.035331064E0
3.270745184E0,8.542327881E-1,-1.378265381E0,8.791229248E0,8.939521285E0
3.273095038E0,7.872314453E-1,-1.335189819E0,8.721832275E0,8.858488779E0
3.275414374E0,7.848510742E-1,-1.256225586E0,8.702697754E0,8.827856032E0
3.277764227E0,8.590240479E-1,-1.146163940E0,8.712265015E0,8.829222830E0
3.280083563E0,1.019348145E0,-1.052841187E0,8.750549316E0,8.872409962E0
3.282433417E0,1.170089722E0,-9.379882812E-1,8.807983398E0,8.934735783E0
3.284783270E0,1.330413818E0,-8.231353760E-1,8.879760742E0,9.016523921E0
3.287102606E0,1.517044067E0,-7.657012939E-1,8.949157715E0,9.109069381E0
3.289452460E0,1.756332397E0,-7.369842529E-1,9.004196167E0,9.203444893E0
3.291802313E0,2.012359619E0,-7.585296631E-1,9.047256470E0,9.299344499E0
3.294121649E0,2.215759277E0,-7.393798828E-1,9.054443359E0,9.350893879E0
3.296471503E0,2.316253662E0,-6.340942383E-1,9.054443359E0,9.367499724E0
3.298790839E0,2.337783813E0,-4.618072510E-1,9.052047729E0,9.360452296E0
3.301140692E0,2.301895142E0,-2.536315918E-1,9.080764771E0,9.371410729E0
3.303490546E0,2.282745361E0,-5.981445312E-2,9.169296265E0,9.449364960E0
3.305809882E0,2.244461060E0,4.785156250E-2,9.236297607E0,9.505213765E0
3.308159735E0,2.194213867E0,1.387786865E-1,9.324829102E0,9.580515215E0
3.310479071E0,2.199005127E0,2.081756592E-1,9.375076294E0,9.631771186E0
3.312828925E0,2.246856689E0,2.464599609E-1,9.415756226E0,9.683262508E0
3.315178778E0,2.268402100E0,2.512512207E-1,9.480361938E0,9.751206989E0
3.317498114E0,2.268402100E0,2.368927002E-1,9.511474609E0,9.781099912E0
3.319847968E0,2.201400757E0,2.225341797E-1,9.511474609E0,9.765440901E0
3.322167303E0,2.009963989E0,2.201385498E-1,9.434906006E0,9.649138177E0
3.324517157E0,1.871185303E0,2.392883301E-1,9.458831787E0,9.645107160E0
3.326867010E0,1.746765137E0,2.177429199E-1,9.731613159E0,9.889534625E0
3.329186346E0,1.646255493E0,1.722869873E-1,1.010968018E1,1.024428979E1
3.331536200E0,1.564910889E0,9.332275391E-2,1.070069885E1,1.081492539E1
3.333855536E0,1.505081177E0,4.785156250E-2,1.137309265E1,1.147234917E1
3.336205389E0,1.387832642E0,4.785156250E-2,1.217468262E1,1.225362257E1
3.338555243E0,1.174880981E0,4.785156250E-2,1.315335083E1,1.320580452E1
3.340874579E0,8.973083496E-1,5.264282227E-2,1.396929932E1,1.399818763E1
3.343224432E0,6.053771973E-1,5.981445312E-2,1.434017944E1,1.435307653E1
3.345543768E0,4.402770996E-1,5.024719238E-2,1.406739807E1,1.407437591E1
3.347893622E0,4.689941406E-1,-6.700134277E-2,1.316770935E1,1.317622914E1
3.350243475E0,7.417755127E-1,-3.254241943E-1,1.191146851E1,1.193897876E1
3.352562811E0,1.313659668E0,-6.628112793E-1,1.035614014E1,1.046014622E1
3.354912665E0,2.364105225E0,-9.284210205E-1,1.073181152E1,1.102826993E1
3.357232001E0,3.390625000E0,-7.346038818E-1,1.594337463E1,1.631646945E1
3.359581854E0,8.949127197E-1,3.134613037E-1,1.215553284E1,1.219246100E1
3.361931708E0,-1.292114258E-1,2.751770020E-1,9.726821899E0,9.731571417E0
3.364251044E0,1.651000977E-1,-3.373870850E-1,1.006181335E1,1.006882198E1
3.366600897E0,1.363983154E-1,-4.929199219E-1,1.105723572E1,1.106905761E1
3.368920233E0,-6.460571289E-2,-8.375549316E-2,1.197367859E1,1.197414581E1
3.371270087E0,-4.785156250E-2,5.216369629E-1,1.175115967E1,1.176282910E1
3.373619940E0,2.464599609E-1,8.494567871E-1,1.069592285E1,1.073243146E1
3.375939276E0,1.143768311E0,5.647125244E-1,9.812973022E0,9.895531604E0
3.378289130E0,2.100891113E0,9.809875488E-2,9.207580566E0,9.444729044E0
3.380638983E0,2.603393555E0,-3.588867188E-2,8.774475098E0,9.152614885E0
3.382958319E0,2.591430664E0,-5.264282227E-2,8.855834961E0,9.227355906E0
3.385308173E0,1.993225098E0,-1.387786865E-1,9.511474609E0,9.719071718E0
3.387627509E0,1.179656982E0,-2.751770020E-1,1.010009766E1,1.017247687E1
3.389977362E0,6.580200195E-1,-3.158569336E-1,1.042552185E1,1.045104118E1
3.392327216E0,3.373870850E-1,-2.440643311E-1,1.050210571E1,1.051035784E1
3.394646551E0,7.417297363E-2,-1.651000977E-1,1.043031311E1,1.043188340E1
3.396996405E0,4.785156250E-2,-1.100769043E-1,1.028434753E1,1.028504793E1
3.399315741E0,2.010040283E-1,-1.028900146E-1,1.004747009E1,1.005000718E1
3.401665594E0,6.676025391E-1,-1.555328369E-1,9.755538940E0,9.779592202E0
3.404015448E0,1.136596680E0,-2.392883301E-1,9.425323486E0,9.496622228E0
3.406334784E0,1.438079834E0,-3.182525635E-1,9.183654785E0,9.301014650E0
3.408684637E0,1.497909546E0,-3.493499756E-1,9.066406250E0,9.195950234E0
3.411003973E0,1.361511230E0,-3.397827148E-1,9.047256470E0,9.155436350E0
3.413384344E0,1.170089722E0,-2.751770020E-1,9.107086182E0,9.186068313E0
3.415734198E0,9.284210205E-1,-2.392883301E-1,9.209976196E0,9.259745463E0
3.418053534E0,7.058868408E-1,-2.201385498E-1,9.260223389E0,9.289697219E0
3.420403387E0,5.335998535E-1,-2.177429199E-1,9.288940430E0,9.306801550E0
3.422722723E0,4.307098389E-1,-1.842498779E-1,9.288940430E0,9.300745846E0
3.425072577E0,3.900299072E-1,-1.316070557E-1,9.243469238E0,9.252630291E0
3.427422430E0,4.259185791E-1,-6.939697266E-2,9.181259155E0,9.191395011E0
3.429741766E0,5.718841553E-1,-6.221008301E-2,9.126220703E0,9.144332994E0
3.432091620E0,7.393798828E-1,-1.555328369E-1,9.200408936E0,9.231381135E0
3.434410956E0,7.441711426E-1,-1.172485352E-1,9.157333374E0,9.188269284E0
3.436760809E0,7.130584717E-1,-8.135986328E-2,9.145370483E0,9.173487510E0
3.439110663E0,6.891326904E-1,-9.809875488E-2,9.195617676E0,9.221925594E0
3.441429999E0,6.819610596E-1,-1.363983154E-1,9.209976196E0,9.236197103E0
3.443779852E0,6.484527588E-1,-1.244201660E-1,9.226730347E0,9.250325629E0
3.446099188E0,5.407714844E-1,-5.024719238E-2,9.243469238E0,9.259410464E0
3.448449042E0,4.402770996E-1,1.196289062E-2,9.298507690E0,9.308932930E0
3.450798895E0,3.613128662E-1,4.785156250E-2,9.396621704E0,9.403687373E0
3.453118231E0,3.038940430E-1,6.700134277E-2,9.506683350E0,9.511775285E0
3.455468085E0,2.871398926E-1,1.316070557E-1,9.645462036E0,9.650632499E0
3.457787421E0,3.230285645E-1,2.153472900E-1,9.698104858E0,9.705872436E0
3.460137274E0,3.828582764E-1,2.632141113E-1,9.729217529E0,9.740304711E0
3.462487128E0,4.283142090E-1,2.512512207E-1,9.753143311E0,9.765776194E0
3.464806464E0,3.924255371E-1,2.153472900E-1,9.757934570E0,9.768196319E0
3.467156317E0,3.110656738E-1,2.057800293E-1,9.767501831E0,9.774620161E0
3.469475653E0,2.536315918E-1,1.818542480E-1,9.784255981E0,9.789232098E0
3.471825507E0,2.153472900E-1,1.483612061E-1,9.832107544E0,9.835584592E0
3.474175360E0,1.770629883E-1,1.244201660E-1,9.836898804E0,9.839278924E0
3.476494696E0,2.297058105E-1,1.100769043E-1,9.877578735E0,9.880862480E0
3.478844550E0,2.895355225E-1,8.135986328E-2,9.882354736E0,9.886930028E0
3.481163885E0,3.158569336E-1,6.460571289E-2,9.856033325E0,9.861304803E0
3.483513739E0,3.349914551E-1,4.785156250E-2,9.834503174E0,9.840323253E0
3.485863593E0,3.684997559E-1,2.632141113E-2,9.877578735E0,9.884485144E0
3.488182928E0,3.924255371E-1,-3.349304199E-2,9.894317627E0,9.902153346E0
3.490532782E0,3.732757568E-1,-6.939697266E-2,9.908676147E0,9.915947445E0
3.492852118E0,3.493499756E-1,-8.613586426E-2,9.903900146E0,9.910434042E0
3.495201971E0,2.727813721E-1,-7.656860352E-2,9.865615845E0,9.869683299E0
3.497551825E0,2.512512207E-1,-5.264282227E-2,9.789031982E0,9.792397336E0
3.499871161E0,5.718841553E-1,-4.547119141E-2,9.815353394E0,9.832104625E0
3.502221014E0,1.117446899E0,-1.603240967E-1,9.753143311E0,9.818258289E0
3.504540350E0,1.196411133E0,-8.375549316E-2,9.580856323E0,9.655631645E0
3.506890204E0,1.237091064E0,4.785156250E-2,9.501892090E0,9.582204202E0
3.509240057E0,1.076766968E0,1.052856445E-1,9.719650269E0,9.779678600E0
3.511559393E0,6.532440186E-1,2.392883301E-1,9.767501831E0,9.792245844E0
3.513909247E0,5.383911133E-1,2.321014404E-1,9.867996216E0,9.885397584E0
3.516228583E0,4.594268799E-1,5.264282227E-2,9.994827271E0,1.000551930E1
3.518578436E0,2.943115234E-1,-4.791259766E-3,9.978073120E0,9.982413807E0
3.520928290E0,5.503845215E-2,4.791259766E-3,9.851257324E0,9.851412237E0
3.523247626E0,-6.269226074E-1,3.469543457E-1,8.965911865E0,8.994497476E0
3.525597479E0,-3.038940430E-1,5.503845215E-2,9.470794678E0,9.475828863E0
3.527916815E0,1.507415771E-1,-2.464599609E-1,9.999603271E0,1.000377584E1
3.530327704E0,1.890258789E-1,-1.555328369E-1,9.765106201E0,9.768173850E0
3.532616522E0,1.962127686E-1,-7.417297363E-2,9.468399048E0,9.470722338E0
3.534935858E0,6.628112793E-1,-4.809570312E-1,9.669403076E0,9.704019492E0
3.537285712E0,1.316070557E-1,4.785156250E-2,8.846267700E0,8.847376018E0
3.539605048E0,9.403839111E-1,-6.723785400E-1,9.757934570E0,9.826174326E0
3.541954901E0,8.757781982E-1,-9.786682129E-1,9.597610474E0,9.687048350E0
3.544274237E0,4.761657715E-1,-1.316055298E0,9.071197510E0,9.178527096E0
3.546624091E0,6.939697266E-2,-1.495513916E0,8.673980713E0,8.802233763E0
3.548973944E0,4.791259766E-3,-1.763504028E0,8.731414795E0,8.907725509E0
3.551293280E0,-1.148529053E-1,-1.856826782E0,8.843872070E0,9.037426076E0
3.553643134E0,-2.847442627E-1,-1.612762451E0,8.848663330E0,8.998940201E0
3.555962469E0,-3.661041260E-1,-1.548156738E0,8.963516235E0,9.103595159E0
3.558312323E0,-1.883148193E0,-1.986083984E-1,1.083953857E0,2.181891010E0
3.560662176E0,-7.657012939E-1,3.661041260E-1,5.541778564E0,5.606392812E0
3.562981512E0,1.002593994E0,-4.522399902E-1,1.572323608E1,1.576165818E1
3.565331366E0,4.791259766E-3,1.531372070E-1,1.316770935E1,1.316860067E1
3.567650702E0,-4.546356201E-1,1.172485352E0,1.090647888E1,1.097873841E1
3.570000555E0,1.794586182E-1,1.237091064E0,1.403869629E1,1.409423972E1
3.572350409E0,7.920227051E-1,1.485946655E0,1.245703125E1,1.257032080E1
3.574669745E0,2.201400757E0,8.015899658E-1,1.159800720E1,1.183226448E1
3.577019598E0,2.005187988E0,4.547119141E-2,1.023889160E1,1.043349164E1
3.579338934E0,1.667800903E0,-7.058868408E-1,1.112663269E1,1.127305598E1
3.581688788E0,8.614196777E-1,-7.561340332E-1,1.026998901E1,1.033375328E1
3.584038641E0,-1.962127686E-1,-1.076812744E-1,1.009292603E1,1.009540739E1
3.586357977E0,-9.068756104E-1,7.417297363E-2,9.592819214E0,9.635875958E0
3.588707831E0,-1.617553711E0,8.614196777E-1,8.482559204E0,8.678267945E0
3.591027167E0,-1.320831299E0,1.785049438E0,8.965911865E0,9.236805313E0
3.593377020E0,-1.272979736E0,1.385437012E0,9.473190308E0,9.658221768E0
3.595726874E0,-5.240325928E-1,1.430908203E0,4.998611450E0,5.225727210E0
3.598046210E0,4.402770996E-1,7.441711426E-1,5.534591675E0,5.601726486E0
3.600396063E0,1.600799561E0,-7.177734375E-2,8.260025024E0,8.414019528E0
3.602715399E0,1.225128174E0,4.929199219E-1,1.073660278E1,1.081751119E1
3.605065253E0,2.081756592E-1,7.441711426E-1,1.081077576E1,1.083835782E1
3.607415106E0,-5.383911133E-1,1.507415771E-1,1.090409851E1,1.091842261E1
3.609734442E0,-1.143768311E0,1.555328369E-1,1.096870422E1,1.102927327E1
3.612084296E0,-1.418945312E0,3.325958252E-1,1.065284729E1,1.075207799E1
3.614403632E0,-1.335189819E0,2.153472900E-1,9.915863037E0,1.000766936E1
3.616753485E0,-9.667053223E-1,1.938171387E-1,9.420547485E0,9.472000802E0
3.619103339E0,-4.665985107E-1,2.440643311E-1,9.119049072E0,9.134239845E0
3.621422675E0,-1.411743164E-1,3.014984131E-1,8.932403564E0,8.938605312E0
3.623772528E0,3.828430176E-2,2.751770020E-1,8.805587769E0,8.809969581E0
3.626091864E0,3.588867188E-2,3.230285645E-1,8.738586426E0,8.744628532E0
3.628441718E0,-2.632141113E-2,2.584228516E-1,8.690734863E0,8.694616015E0
3.630791571E0,-1.316070557E-1,2.727813721E-1,8.611770630E0,8.617094840E0
3.633110907E0,-2.536315918E-1,2.943115234E-1,8.547164917E0,8.555990672E0
3.635460760E0,-3.110656738E-1,1.746826172E-1,8.513656616E0,8.521128144E0
3.637780096E0,-1.938171387E-1,-1.100769043E-1,9.300903320E0,9.303573753E0
3.640129950E0,-3.086700439E-1,4.594268799E-1,9.422943115E0,9.439184669E0
3.642479803E0,-5.862426758E-1,1.770629883E-1,1.058824158E1,1.060593661E1
3.644799139E0,-7.513427734E-1,6.700134277E-2,1.090409851E1,1.093015871E1
3.647148993E0,-8.853454590E-1,2.273254395E-1,1.096151733E1,1.099956252E1
3.649468329E0,-4.929199219E-1,-2.823486328E-1,1.098306274E1,1.099774332E1
3.651818182E0,-7.633056641E-1,5.264282227E-1,9.559326172E0,9.604190704E0
3.654168036E0,-8.350982666E-1,3.589172363E-1,9.300903320E0,9.345213388E0
3.656487372E0,-5.359954834E-1,1.124572754E-1,8.250457764E0,8.268614824E0
3.658837225E0,-3.972015381E-1,2.416687012E-1,7.475173950E0,7.489619377E0
3.661156561E0,-1.148529053E-1,5.623168945E-1,6.094512939E0,6.121476901E0
3.663506415E0,1.387786865E-1,-7.656860352E-2,6.853042603E0,6.854875286E0
3.665856268E0,-2.919311523E-1,1.698913574E-1,7.984848022E0,7.991988790E0
3.668175604E0,-2.679901123E-1,3.900299072E-1,8.884552002E0,8.897145964E0
3.670525458E0,-6.269226074E-1,4.785156250E-2,1.186361694E1,1.188026636E1
3.672844794E0,-7.465667725E-1,-2.679901123E-1,1.484507751E1,1.486625397E1
3.675194647E0,-9.738769531E-1,-3.349914551E-1,1.487857056E1,1.491417170E1
3.677544501E0,-9.714813232E-1,1.220397949E-1,1.264128113E1,1.267914265E1
3.679863837E0,-2.799530029E-1,7.848510742E-1,9.255432129E0,9.292867630E0
3.682213690E0,8.733825684E-1,1.031311035E0,5.989242554E0,6.139822956E0
3.684533026E0,1.835296631E0,4.283142090E-1,4.857437134E0,5.210226703E0
3.686882880E0,1.715652466E0,5.024719238E-2,5.137390137E0,5.416527077E0
3.689232733E0,1.306488037E0,4.785156250E-2,7.022933960E0,7.143584686E0
3.691552069E0,8.494567871E-1,1.698913574E-1,9.461227417E0,9.500803342E0
3.693901923E0,4.618072510E-1,3.325958252E-1,1.112423706E1,1.113878522E1
3.696221259E0,3.948211670E-1,3.493499756E-1,1.121994019E1,1.123231886E1
3.698601630E0,5.240325928E-1,3.732757568E-1,9.908676147E0,9.929542182E0
3.700951483E0,7.633056641E-1,2.919311523E-1,8.633300781E0,8.671893779E0
3.703270819E0,1.062408447E0,1.818542480E-1,7.843673706E0,7.917385925E0
3.705620673E0,1.241882324E0,2.249298096E-1,7.470397949E0,7.576259674E0
3.707940009E0,1.198806763E0,4.881286621E-1,7.901107788E0,8.006429387E0
3.710289862E0,1.227523804E0,6.628112793E-1,8.231307983E0,8.348686400E0
3.712639716E0,6.915283203E-1,9.667053223E-1,7.889129639E0,7.978163765E0
3.714959051E0,-3.182525635E-1,8.973083496E-1,6.867401123E0,6.933083380E0
3.717308905E0,-2.225341797E-1,2.201385498E-1,6.309875488E0,6.317634931E0
3.719628241E0,-9.439682007E0,5.981445312E-2,3.497109985E1,3.622276907E1
3.721978094E0,-5.108673096E0,4.402770996E-1,2.244229126E1,2.302061732E1
3.724327948E0,-2.301895142E0,3.948211670E-1,1.190907288E1,1.213592278E1
3.726647284E0,-3.397827148E-1,-4.977111816E-1,5.584854126E0,5.617273745E0
3.728997137E0,1.095916748E0,-1.117446899E0,5.594421387E0,5.809240204E0
3.731408026E0,6.388854980E-1,4.307556152E-2,8.863021851E0,8.886123255E0
3.733666327E0,9.308013916E-1,-2.057800293E-1,9.221939087E0,9.271078533E0
3.736016180E0,6.149597168E-1,4.785156250E-2,7.654632568E0,7.679444315E0
3.738335516E0,3.254241943E-1,2.153015137E-2,6.405578613E0,6.413875726E0
3.740685370E0,1.028900146E-1,-5.216369629E-1,4.955535889E0,4.983977069E0
3.743004706E0,-4.455429077E0,-5.072784424E-1,1.936750793E1,1.987985270E1
3.745354559E0,-3.146560669E0,-4.929199219E-1,1.357687378E1,1.394544068E1
3.747704413E0,-9.714813232E-1,-1.739578247E0,8.642868042E0,8.869558976E0
3.750023749E0,-9.475555420E-1,-1.842468262E0,6.814758301E0,7.122743959E0
3.752373602E0,-1.856826782E0,-7.680969238E-1,8.774475098E0,9.001621622E0
3.754723456E0,-3.543777466E0,2.871704102E-2,1.214596558E1,1.265241729E1
3.757042792E0,-2.325820923E0,-2.536315918E-1,9.884750366E0,1.015785714E1
3.759392645E0,-1.954940796E0,-2.321014404E-1,7.874786377E0,8.117137739E0
3.761711981E0,-2.567504883E0,-3.588867188E-2,1.020060730E1,1.051882877E1
3.764061835E0,-1.765899658E0,-4.761657715E-1,9.719650269E0,9.890234415E0
3.766411688E0,-1.074371338E0,-2.751770020E-1,9.736389160E0,9.799350490E0
3.768731024E0,-8.709869385E-1,5.024719238E-2,9.195617676E0,9.236911143E0
3.771080878E0,-2.775726318E-1,1.244201660E-1,1.024128723E1,1.024580358E1
3.773400214E0,-3.852386475E-1,4.785156250E-2,9.099899292E0,9.108175762E0
3.775750067E0,-5.647125244E-1,0.000000000E0,9.872787476E0,9.888924753E0
3.778099921E0,-7.776641846E-1,-9.809875488E-2,9.466003418E0,9.498400163E0
3.780419257E0,-6.604156494E-1,-6.460571289E-2,9.882354736E0,9.904607911E0
3.782769110E0,-6.747741699E-1,-4.791259766E-3,9.320037842E0,9.344434093E0
3.785088446E0,-6.149597168E-1,2.871704102E-2,9.808181763E0,9.827483381E0
3.787438300E0,-6.939239502E-1,-4.547119141E-2,9.454040527E0,9.479582289E0
3.789788153E0,-7.106628418E-1,-4.307556152E-2,9.753143311E0,9.779095133E0
3.792107489E0,-7.058868408E-1,-3.349304199E-2,9.542572021E0,9.568703089E0
3.794457343E0,-6.221313477E-1,-2.395629883E-3,9.745971680E0,9.765808576E0
3.796776678E0,-6.795654297E-1,2.395629883E-3,9.547363281E0,9.571518194E0
3.799126532E0,-6.891326904E-1,-2.395629883E-3,9.707687378E0,9.732117130E0
3.801476385E0,-7.393798828E-1,-2.632141113E-2,9.609573364E0,9.638012019E0
3.803795721E0,-6.939239502E-1,-2.153015137E-2,9.688537598E0,9.713380193E0
3.806145575E0,-6.795654297E-1,1.435852051E-2,9.607177734E0,9.631193039E0
3.808464911E0,-6.699829102E-1,7.171630859E-3,9.659820557E0,9.683029573E0
3.810814764E0,-6.939239502E-1,-7.171630859E-3,9.631118774E0,9.656087755E0
3.813164618E0,-6.891326904E-1,-2.632141113E-2,9.662216187E0,9.686796081E0
3.815483954E0,-6.819610596E-1,-3.828430176E-2,9.652648926E0,9.676784996E0
3.817833807E0,-6.819610596E-1,-1.675415039E-2,9.626327515E0,9.650468020E0
3.820153143E0,-6.891326904E-1,-2.392578125E-2,9.657424927E0,9.682010769E0
3.822502997E0,-6.867370605E-1,-1.196289062E-2,9.633499146E0,9.657953028E0
3.824822333E0,-7.058868408E-1,-2.153015137E-2,9.671783447E0,9.697532409E0
3.827172186E0,-6.939239502E-1,-2.871704102E-2,9.640686035E0,9.665670300E0
3.829522040E0,-6.843414307E-1,-4.067993164E-2,9.647857666E0,9.672183600E0
3.831841376E0,-6.771697998E-1,-3.349304199E-2,9.623931885E0,9.647784494E0
3.834191229E0,-6.771697998E-1,-3.828430176E-2,9.643081665E0,9.666904811E0
3.836510565E0,-6.795654297E-1,-3.828430176E-2,9.616760254E0,9.640817011E0
3.838860419E0,-6.723785400E-1,-2.153015137E-2,9.655044556E0,9.678452450E0
3.841210272E0,-6.771697998E-1,-3.349304199E-2,9.614364624E0,9.638240910E0
3.843529608E0,-6.867370605E-1,-1.196289062E-2,9.635894775E0,9.660342593E0
3.845879462E0,-6.891326904E-1,-3.349304199E-2,9.611968994E0,9.636699310E0
3.848198798E0,-6.963043213E-1,-3.828430176E-2,9.640686035E0,9.665874644E0
